delay,freq,condition,trials.thisRepN,trials.thisTrialN,trials.thisN,trials.thisIndex,polygon.started,polygon_2.started,key_resp.started,polygon.stopped,key_resp.keys,key_resp.rt,sound_1.started,sound_1.stopped,text.started,textbox.started,button.started,textbox.text,button.numClicks,button.timesOn,button.timesOff,participant,session,date,expName,psychopyVersion,frameRate,
0.1,1000,exp,0,0,0,9,8.454451799858361,9.445446099853143,9.445446099853143,9.46215429995209,space,0.6563356001861393,10.227876289957203,10.53249519993551,10.53249519993551,10.53249519993551,10.53249519993551,100,1,[5.9602209001313895],[5.960225699935108],929845,001,2022-11-04_12h02.21.094,intentional_binding,2022.2.4,60.06247694682845,
0.1,1000,exp,0,1,1,3,16.488485999871045,17.487507699988782,17.487507699988782,17.504248699871823,space,2.2990938001312315,19.918435489968395,,20.218482399825007,20.218482399825007,20.218482399825007,250,2,"[5.9602209001313895, 5.694470200221986]","[5.960225699935108, 5.69447880005464]",929845,001,2022-11-04_12h02.21.094,intentional_binding,2022.2.4,60.06247694682845,
0.4,1000,exp,0,2,2,4,25.91320710000582,26.9117752998136,26.9117752998136,26.928396599832922,space,1.0529772001318634,28.393499789969063,,28.694081799825653,28.694081799825653,28.694081799825653,200,3,"[5.9602209001313895, 5.694470200221986, 8.424653200199828]","[5.960225699935108, 5.69447880005464, 8.42465820000507]",929845,001,2022-11-04_12h02.21.094,intentional_binding,2022.2.4,60.06247694682845,
0.7,1000,exp,0,3,3,11,37.11824829992838,38.117337099974975,38.117337099974975,38.13404329982586,space,0.9778296002186835,39.81564568981994,,40.115388199919835,40.115388199919835,40.115388199919835,500,4,"[5.9602209001313895, 5.694470200221986, 8.424653200199828, 4.594928100006655]","[5.960225699935108, 5.69447880005464, 8.42465820000507, 4.594938900088891]",929845,001,2022-11-04_12h02.21.094,intentional_binding,2022.2.4,60.06247694682845,
0.1,400,unexp,0,4,4,0,44.71090909978375,45.71034979983233,45.71034979983233,45.72645669989288,space,0.8603974001016468,46.693193089892155,,47.008781999815255,47.008781999815255,47.008781999815255,250,5,"[5.9602209001313895, 5.694470200221986, 8.424653200199828, 4.594928100006655, 9.723627500003204]","[5.960225699935108, 5.69447880005464, 8.42465820000507, 4.594938900088891, 9.723632899811491]",929845,001,2022-11-04_12h02.21.094,intentional_binding,2022.2.4,60.06247694682845,
0.7,1000,exp,0,5,5,8,56.73233519983478,57.73179270001128,57.73179270001128,57.73179270001128,space,0.9339354000985622,59.396400589938274,59.696666499832645,59.696666499832645,59.696666499832645,59.696666499832645,600,6,"[5.9602209001313895, 5.694470200221986, 8.424653200199828, 4.594928100006655, 9.723627500003204, 2.8801241000182927]","[5.960225699935108, 5.69447880005464, 8.42465820000507, 4.594938900088891, 9.723632899811491, 2.880129999946803]",929845,001,2022-11-04_12h02.21.094,intentional_binding,2022.2.4,60.06247694682845,
0.4,1000,exp,0,6,6,10,62.57667399989441,63.575907999882475,63.575907999882475,63.575907999882475,space,0.8489190002437681,64.84108488981147,,65.14101839996874,65.14101839996874,65.14101839996874,300,7,"[5.9602209001313895, 5.694470200221986, 8.424653200199828, 4.594928100006655, 9.723627500003204, 2.8801241000182927, 5.328104899963364]","[5.960225699935108, 5.69447880005464, 8.42465820000507, 4.594938900088891, 9.723632899811491, 2.880129999946803, 5.32811119989492]",929845,001,2022-11-04_12h02.21.094,intentional_binding,2022.2.4,60.06247694682845,
0.7,400,unexp,0,7,7,2,70.46912069991231,71.46838919981383,71.46838919981383,71.46838919981383,space,0.6804541002493352,72.86656779001933,73.16692539979704,73.16692539979704,73.16692539979704,73.16692539979704,500,8,"[5.9602209001313895, 5.694470200221986, 8.424653200199828, 4.594928100006655, 9.723627500003204, 2.8801241000182927, 5.328104899963364, 3.978919600136578]","[5.960225699935108, 5.69447880005464, 8.42465820000507, 4.594938900088891, 9.723632899811491, 2.880129999946803, 5.32811119989492, 3.978924500057474]",929845,001,2022-11-04_12h02.21.094,intentional_binding,2022.2.4,60.06247694682845,
0.4,1000,exp,0,8,8,7,77.14576340001076,78.14496709988452,78.14496709988452,78.14496709988452,space,2.1228672999422997,80.69256368998904,,80.99246279988438,80.99246279988438,80.99246279988438,250,9,"[5.9602209001313895, 5.694470200221986, 8.424653200199828, 4.594928100006655, 9.723627500003204, 2.8801241000182927, 5.328104899963364, 3.978919600136578, 4.311660299776122]","[5.960225699935108, 5.69447880005464, 8.42465820000507, 4.594938900088891, 9.723632899811491, 2.880129999946803, 5.32811119989492, 3.978924500057474, 4.311667199945077]",929845,001,2022-11-04_12h02.21.094,intentional_binding,2022.2.4,60.06247694682845,
0.4,400,unexp,0,9,9,1,85.30448659998365,86.30376109993085,86.30376109993085,86.30376109993085,space,0.7642413000576198,87.48567918988411,,87.78549579996616,87.78549579996616,87.78549579996616,200,10,"[5.9602209001313895, 5.694470200221986, 8.424653200199828, 4.594928100006655, 9.723627500003204, 2.8801241000182927, 5.328104899963364, 3.978919600136578, 4.311660299776122, 5.194697899976745]","[5.960225699935108, 5.69447880005464, 8.42465820000507, 4.594938900088891, 9.723632899811491, 2.880129999946803, 5.32811119989492, 3.978924500057474, 4.311667199945077, 5.194703500019386]",929845,001,2022-11-04_12h02.21.094,intentional_binding,2022.2.4,60.06247694682845,
0.7,1000,exp,0,10,10,5,92.98042099992745,93.97933089989237,93.97933089989237,93.99584499979392,space,1.1060383999720216,95.81082388989162,,96.11061949981377,96.11061949981377,96.11061949981377,400,11,"[5.9602209001313895, 5.694470200221986, 8.424653200199828, 4.594928100006655, 9.723627500003204, 2.8801241000182927, 5.328104899963364, 3.978919600136578, 4.311660299776122, 5.194697899976745, 2.0644702999852598]","[5.960225699935108, 5.69447880005464, 8.42465820000507, 4.594938900088891, 9.723632899811491, 2.880129999946803, 5.32811119989492, 3.978924500057474, 4.311667199945077, 5.194703500019386, 2.0644753000233322]",929845,001,2022-11-04_12h02.21.094,intentional_binding,2022.2.4,60.06247694682845,
0.1,1000,exp,0,11,11,6,98.17515429994091,99.17463119979948,99.17463119979948,99.17463119979948,space,2.2850968001876026,101.58848768982571,,101.88854029984213,101.88854029984213,101.88854029984213,250,12,"[5.9602209001313895, 5.694470200221986, 8.424653200199828, 4.594928100006655, 9.723627500003204, 2.8801241000182927, 5.328104899963364, 3.978919600136578, 4.311660299776122, 5.194697899976745, 2.0644702999852598, 2.8799279001541436]","[5.960225699935108, 5.69447880005464, 8.42465820000507, 4.594938900088891, 9.723632899811491, 2.880129999946803, 5.32811119989492, 3.978924500057474, 4.311667199945077, 5.194703500019386, 2.0644753000233322, 2.879933000076562]",929845,001,2022-11-04_12h02.21.094,intentional_binding,2022.2.4,60.06247694682845,
0.4,400,unexp,1,0,12,1,104.76881579984911,105.76774319983087,105.76774319983087,105.76774319983087,space,0.7544072002638131,106.94980918986258,107.24984880001284,107.24984880001284,107.24984880001284,107.24984880001284,300,13,"[5.9602209001313895, 5.694470200221986, 8.424653200199828, 4.594928100006655, 9.723627500003204, 2.8801241000182927, 5.328104899963364, 3.978919600136578, 4.311660299776122, 5.194697899976745, 2.0644702999852598, 2.8799279001541436, 4.595491799991578]","[5.960225699935108, 5.69447880005464, 8.42465820000507, 4.594938900088891, 9.723632899811491, 2.880129999946803, 5.32811119989492, 3.978924500057474, 4.311667199945077, 5.194703500019386, 2.0644753000233322, 2.879933000076562, 4.5954971997998655]",929845,001,2022-11-04_12h02.21.094,intentional_binding,2022.2.4,60.06247694682845,
0.1,1000,exp,1,1,13,6,111.84532599989325,112.84433339978568,112.84433339978568,112.84433339978568,space,1.5834804000332952,114.55919238992502,,114.85922519979067,114.85922519979067,114.85922519979067,100,14,"[5.9602209001313895, 5.694470200221986, 8.424653200199828, 4.594928100006655, 9.723627500003204, 2.8801241000182927, 5.328104899963364, 3.978919600136578, 4.311660299776122, 5.194697899976745, 2.0644702999852598, 2.8799279001541436, 4.595491799991578, 8.407475000014529]","[5.960225699935108, 5.69447880005464, 8.42465820000507, 4.594938900088891, 9.723632899811491, 2.880129999946803, 5.32811119989492, 3.978924500057474, 4.311667199945077, 5.194703500019386, 2.0644753000233322, 2.879933000076562, 4.5954971997998655, 8.407480099936947]",929845,001,2022-11-04_12h02.21.094,intentional_binding,2022.2.4,60.06247694682845,
0.7,400,unexp,1,2,14,2,123.26726999995299,124.26623099995777,124.26623099995777,124.26623099995777,space,0.5987497000023723,125.58170488986653,,125.88166229985654,125.88166229985654,125.88166229985654,200,15,"[5.9602209001313895, 5.694470200221986, 8.424653200199828, 4.594928100006655, 9.723627500003204, 2.8801241000182927, 5.328104899963364, 3.978919600136578, 4.311660299776122, 5.194697899976745, 2.0644702999852598, 2.8799279001541436, 4.595491799991578, 8.407475000014529, 4.645067299949005]","[5.960225699935108, 5.69447880005464, 8.42465820000507, 4.594938900088891, 9.723632899811491, 2.880129999946803, 5.32811119989492, 3.978924500057474, 4.311667199945077, 5.194703500019386, 2.0644753000233322, 2.879933000076562, 4.5954971997998655, 8.407480099936947, 4.645073899999261]",929845,001,2022-11-04_12h02.21.094,intentional_binding,2022.2.4,60.06247694682845,
0.7,1000,exp,1,3,15,8,130.52678580000065,131.52604759996757,131.52604759996757,131.52604759996757,space,1.1092501000966877,133.35750318991487,,133.65729679982178,133.65729679982178,133.65729679982178,250,16,"[5.9602209001313895, 5.694470200221986, 8.424653200199828, 4.594928100006655, 9.723627500003204, 2.8801241000182927, 5.328104899963364, 3.978919600136578, 4.311660299776122, 5.194697899976745, 2.0644702999852598, 2.8799279001541436, 4.595491799991578, 8.407475000014529, 4.645067299949005, 3.9457739000208676]","[5.960225699935108, 5.69447880005464, 8.42465820000507, 4.594938900088891, 9.723632899811491, 2.880129999946803, 5.32811119989492, 3.978924500057474, 4.311667199945077, 5.194703500019386, 2.0644753000233322, 2.879933000076562, 4.5954971997998655, 8.407480099936947, 4.645073899999261, 3.945778700057417]",929845,001,2022-11-04_12h02.21.094,intentional_binding,2022.2.4,60.06247694682845,
0.1,400,unexp,1,4,16,0,137.60325099993497,138.60226899990812,138.60226899990812,138.60226899990812,space,0.6541518000885844,139.38495978990105,,139.6847359999083,139.6847359999083,139.6847359999083,90,17,"[5.9602209001313895, 5.694470200221986, 8.424653200199828, 4.594928100006655, 9.723627500003204, 2.8801241000182927, 5.328104899963364, 3.978919600136578, 4.311660299776122, 5.194697899976745, 2.0644702999852598, 2.8799279001541436, 4.595491799991578, 8.407475000014529, 4.645067299949005, 3.9457739000208676, 4.279125300003216]","[5.960225699935108, 5.69447880005464, 8.42465820000507, 4.594938900088891, 9.723632899811491, 2.880129999946803, 5.32811119989492, 3.978924500057474, 4.311667199945077, 5.194703500019386, 2.0644753000233322, 2.879933000076562, 4.5954971997998655, 8.407480099936947, 4.645073899999261, 3.945778700057417, 4.27913079992868]",929845,001,2022-11-04_12h02.21.094,intentional_binding,2022.2.4,60.06247694682845,
0.7,1000,exp,1,5,17,11,143.96384429978207,144.96275789989159,144.96275789989159,144.96275789989159,space,0.7643251002300531,146.4446278898744,,146.74482539994642,146.74482539994642,146.74482539994642,100,18,"[5.9602209001313895, 5.694470200221986, 8.424653200199828, 4.594928100006655, 9.723627500003204, 2.8801241000182927, 5.328104899963364, 3.978919600136578, 4.311660299776122, 5.194697899976745, 2.0644702999852598, 2.8799279001541436, 4.595491799991578, 8.407475000014529, 4.645067299949005, 3.9457739000208676, 4.279125300003216, 3.0132221998646855]","[5.960225699935108, 5.69447880005464, 8.42465820000507, 4.594938900088891, 9.723632899811491, 2.880129999946803, 5.32811119989492, 3.978924500057474, 4.311667199945077, 5.194703500019386, 2.0644753000233322, 2.879933000076562, 4.5954971997998655, 8.407480099936947, 4.645073899999261, 3.945778700057417, 4.27913079992868, 3.013227299787104]",929845,001,2022-11-04_12h02.21.094,intentional_binding,2022.2.4,60.06247694682845,
0.4,1000,exp,1,6,18,4,149.75804899982177,150.75723979994655,150.75723979994655,150.75723979994655,space,0.8457508001010865,152.02244598998223,,152.3223162998911,152.3223162998911,152.3223162998911,100,19,"[5.9602209001313895, 5.694470200221986, 8.424653200199828, 4.594928100006655, 9.723627500003204, 2.8801241000182927, 5.328104899963364, 3.978919600136578, 4.311660299776122, 5.194697899976745, 2.0644702999852598, 2.8799279001541436, 4.595491799991578, 8.407475000014529, 4.645067299949005, 3.9457739000208676, 4.279125300003216, 3.0132221998646855, 3.0631373999640346]","[5.960225699935108, 5.69447880005464, 8.42465820000507, 4.594938900088891, 9.723632899811491, 2.880129999946803, 5.32811119989492, 3.978924500057474, 4.311667199945077, 5.194703500019386, 2.0644753000233322, 2.879933000076562, 4.5954971997998655, 8.407480099936947, 4.645073899999261, 3.945778700057417, 4.27913079992868, 3.013227299787104, 3.063142499886453]",929845,001,2022-11-04_12h02.21.094,intentional_binding,2022.2.4,60.06247694682845,
0.4,1000,exp,1,7,19,10,155.38590389979072,156.3852092998568,156.3852092998568,156.3852092998568,space,0.7992727002128959,157.60045159000438,,157.90021369978786,157.90021369978786,157.90021369978786,250,20,"[5.9602209001313895, 5.694470200221986, 8.424653200199828, 4.594928100006655, 9.723627500003204, 2.8801241000182927, 5.328104899963364, 3.978919600136578, 4.311660299776122, 5.194697899976745, 2.0644702999852598, 2.8799279001541436, 4.595491799991578, 8.407475000014529, 4.645067299949005, 3.9457739000208676, 4.279125300003216, 3.0132221998646855, 3.0631373999640346, 2.197676599957049]","[5.960225699935108, 5.69447880005464, 8.42465820000507, 4.594938900088891, 9.723632899811491, 2.880129999946803, 5.32811119989492, 3.978924500057474, 4.311667199945077, 5.194703500019386, 2.0644753000233322, 2.879933000076562, 4.5954971997998655, 8.407480099936947, 4.645073899999261, 3.945778700057417, 4.27913079992868, 3.013227299787104, 3.063142499886453, 2.1976807999890298]",929845,001,2022-11-04_12h02.21.094,intentional_binding,2022.2.4,60.06247694682845,
0.1,1000,exp,1,8,20,9,160.09793729986995,161.09694799990393,161.09694799990393,161.11369559983723,space,0.5403185002505779,161.7631530898856,162.06310209981166,162.06310209981166,162.06310209981166,162.06310209981166,200,21,"[5.9602209001313895, 5.694470200221986, 8.424653200199828, 4.594928100006655, 9.723627500003204, 2.8801241000182927, 5.328104899963364, 3.978919600136578, 4.311660299776122, 5.194697899976745, 2.0644702999852598, 2.8799279001541436, 4.595491799991578, 8.407475000014529, 4.645067299949005, 3.9457739000208676, 4.279125300003216, 3.0132221998646855, 3.0631373999640346, 2.197676599957049, 3.1127887000329792]","[5.960225699935108, 5.69447880005464, 8.42465820000507, 4.594938900088891, 9.723632899811491, 2.880129999946803, 5.32811119989492, 3.978924500057474, 4.311667199945077, 5.194703500019386, 2.0644753000233322, 2.879933000076562, 4.5954971997998655, 8.407480099936947, 4.645073899999261, 3.945778700057417, 4.27913079992868, 3.013227299787104, 3.063142499886453, 2.1976807999890298, 3.1127939000725746]",929845,001,2022-11-04_12h02.21.094,intentional_binding,2022.2.4,60.06247694682845,
0.1,1000,exp,1,9,21,3,165.1762035000138,166.1753234998323,166.1753234998323,166.1753234998323,space,1.1194606001954526,167.42398548985366,167.72405409999192,167.72405409999192,167.72405409999192,167.72405409999192,250,22,"[5.9602209001313895, 5.694470200221986, 8.424653200199828, 4.594928100006655, 9.723627500003204, 2.8801241000182927, 5.328104899963364, 3.978919600136578, 4.311660299776122, 5.194697899976745, 2.0644702999852598, 2.8799279001541436, 4.595491799991578, 8.407475000014529, 4.645067299949005, 3.9457739000208676, 4.279125300003216, 3.0132221998646855, 3.0631373999640346, 2.197676599957049, 3.1127887000329792, 2.6806015998590738]","[5.960225699935108, 5.69447880005464, 8.42465820000507, 4.594938900088891, 9.723632899811491, 2.880129999946803, 5.32811119989492, 3.978924500057474, 4.311667199945077, 5.194703500019386, 2.0644753000233322, 2.879933000076562, 4.5954971997998655, 8.407480099936947, 4.645073899999261, 3.945778700057417, 4.27913079992868, 3.013227299787104, 3.063142499886453, 2.1976807999890298, 3.1127939000725746, 2.6806063998956233]",929845,001,2022-11-04_12h02.21.094,intentional_binding,2022.2.4,60.06247694682845,
0.7,1000,exp,1,10,22,5,170.40457019978203,171.40349719999358,171.40349719999358,171.42012839997187,space,0.7935912001412362,172.91891679002438,173.2187302999664,173.2187302999664,173.2187302999664,173.2187302999664,500,23,"[5.9602209001313895, 5.694470200221986, 8.424653200199828, 4.594928100006655, 9.723627500003204, 2.8801241000182927, 5.328104899963364, 3.978919600136578, 4.311660299776122, 5.194697899976745, 2.0644702999852598, 2.8799279001541436, 4.595491799991578, 8.407475000014529, 4.645067299949005, 3.9457739000208676, 4.279125300003216, 3.0132221998646855, 3.0631373999640346, 2.197676599957049, 3.1127887000329792, 2.6806015998590738, 2.3637273001950234]","[5.960225699935108, 5.69447880005464, 8.42465820000507, 4.594938900088891, 9.723632899811491, 2.880129999946803, 5.32811119989492, 3.978924500057474, 4.311667199945077, 5.194703500019386, 2.0644753000233322, 2.879933000076562, 4.5954971997998655, 8.407480099936947, 4.645073899999261, 3.945778700057417, 4.27913079992868, 3.013227299787104, 3.063142499886453, 2.1976807999890298, 3.1127939000725746, 2.6806063998956233, 2.363732500001788]",929845,001,2022-11-04_12h02.21.094,intentional_binding,2022.2.4,60.06247694682845,
0.4,1000,exp,1,11,23,7,175.58274129987694,176.5825398999732,176.5825398999732,176.5825398999732,space,0.35211360012181103,177.3643686899217,,177.6642993998248,177.6642993998248,177.6642993998248,250,24,"[5.9602209001313895, 5.694470200221986, 8.424653200199828, 4.594928100006655, 9.723627500003204, 2.8801241000182927, 5.328104899963364, 3.978919600136578, 4.311660299776122, 5.194697899976745, 2.0644702999852598, 2.8799279001541436, 4.595491799991578, 8.407475000014529, 4.645067299949005, 3.9457739000208676, 4.279125300003216, 3.0132221998646855, 3.0631373999640346, 2.197676599957049, 3.1127887000329792, 2.6806015998590738, 2.3637273001950234, 1.914963300107047]","[5.960225699935108, 5.69447880005464, 8.42465820000507, 4.594938900088891, 9.723632899811491, 2.880129999946803, 5.32811119989492, 3.978924500057474, 4.311667199945077, 5.194703500019386, 2.0644753000233322, 2.879933000076562, 4.5954971997998655, 8.407480099936947, 4.645073899999261, 3.945778700057417, 4.27913079992868, 3.013227299787104, 3.063142499886453, 2.1976807999890298, 3.1127939000725746, 2.6806063998956233, 2.363732500001788, 1.9149680000264198]",929845,001,2022-11-04_12h02.21.094,intentional_binding,2022.2.4,60.06247694682845,
0.4,1000,exp,2,0,24,10,179.5790577000007,180.57801850000396,180.57801850000396,180.59469269984402,space,0.7638249001465738,181.76007928999607,182.0598823998589,182.0598823998589,182.0598823998589,182.0598823998589,250,25,"[5.9602209001313895, 5.694470200221986, 8.424653200199828, 4.594928100006655, 9.723627500003204, 2.8801241000182927, 5.328104899963364, 3.978919600136578, 4.311660299776122, 5.194697899976745, 2.0644702999852598, 2.8799279001541436, 4.595491799991578, 8.407475000014529, 4.645067299949005, 3.9457739000208676, 4.279125300003216, 3.0132221998646855, 3.0631373999640346, 2.197676599957049, 3.1127887000329792, 2.6806015998590738, 2.3637273001950234, 1.914963300107047, 1.8149623998906463]","[5.960225699935108, 5.69447880005464, 8.42465820000507, 4.594938900088891, 9.723632899811491, 2.880129999946803, 5.32811119989492, 3.978924500057474, 4.311667199945077, 5.194703500019386, 2.0644753000233322, 2.879933000076562, 4.5954971997998655, 8.407480099936947, 4.645073899999261, 3.945778700057417, 4.27913079992868, 3.013227299787104, 3.063142499886453, 2.1976807999890298, 3.1127939000725746, 2.6806063998956233, 2.363732500001788, 1.9149680000264198, 1.814967199927196]",929845,001,2022-11-04_12h02.21.094,intentional_binding,2022.2.4,60.06247694682845,
0.7,1000,exp,2,1,25,11,183.8746899999678,184.8736925998237,184.8736925998237,184.8736925998237,space,1.746310300193727,187.33787169002463,,187.63778899982572,187.63778899982572,187.63778899982572,400,26,"[5.9602209001313895, 5.694470200221986, 8.424653200199828, 4.594928100006655, 9.723627500003204, 2.8801241000182927, 5.328104899963364, 3.978919600136578, 4.311660299776122, 5.194697899976745, 2.0644702999852598, 2.8799279001541436, 4.595491799991578, 8.407475000014529, 4.645067299949005, 3.9457739000208676, 4.279125300003216, 3.0132221998646855, 3.0631373999640346, 2.197676599957049, 3.1127887000329792, 2.6806015998590738, 2.3637273001950234, 1.914963300107047, 1.8149623998906463, 2.0469055001158267]","[5.960225699935108, 5.69447880005464, 8.42465820000507, 4.594938900088891, 9.723632899811491, 2.880129999946803, 5.32811119989492, 3.978924500057474, 4.311667199945077, 5.194703500019386, 2.0644753000233322, 2.879933000076562, 4.5954971997998655, 8.407480099936947, 4.645073899999261, 3.945778700057417, 4.27913079992868, 3.013227299787104, 3.063142499886453, 2.1976807999890298, 3.1127939000725746, 2.6806063998956233, 2.363732500001788, 1.9149680000264198, 1.814967199927196, 2.0469104999210685]",929845,001,2022-11-04_12h02.21.094,intentional_binding,2022.2.4,60.06247694682845,
0.7,1000,exp,2,2,26,5,189.68570379982702,190.68469449994154,190.68469449994154,190.68469449994154,space,0.9269998001400381,192.3330767899519,,192.63298080000095,192.63298080000095,192.63298080000095,600,27,"[5.9602209001313895, 5.694470200221986, 8.424653200199828, 4.594928100006655, 9.723627500003204, 2.8801241000182927, 5.328104899963364, 3.978919600136578, 4.311660299776122, 5.194697899976745, 2.0644702999852598, 2.8799279001541436, 4.595491799991578, 8.407475000014529, 4.645067299949005, 3.9457739000208676, 4.279125300003216, 3.0132221998646855, 3.0631373999640346, 2.197676599957049, 3.1127887000329792, 2.6806015998590738, 2.3637273001950234, 1.914963300107047, 1.8149623998906463, 2.0469055001158267, 3.712335799820721]","[5.960225699935108, 5.69447880005464, 8.42465820000507, 4.594938900088891, 9.723632899811491, 2.880129999946803, 5.32811119989492, 3.978924500057474, 4.311667199945077, 5.194703500019386, 2.0644753000233322, 2.879933000076562, 4.5954971997998655, 8.407480099936947, 4.645073899999261, 3.945778700057417, 4.27913079992868, 3.013227299787104, 3.063142499886453, 2.1976807999890298, 3.1127939000725746, 2.6806063998956233, 2.363732500001788, 1.9149680000264198, 1.814967199927196, 2.0469104999210685, 3.7123413998633623]",929845,001,2022-11-04_12h02.21.094,intentional_binding,2022.2.4,60.06247694682845,
0.7,1000,exp,2,3,27,8,196.3457400999032,197.34481739997864,197.34481739997864,197.34481739997864,space,0.5970316000748426,198.66054398983252,,198.96043389989063,198.96043389989063,198.96043389989063,250,28,"[5.9602209001313895, 5.694470200221986, 8.424653200199828, 4.594928100006655, 9.723627500003204, 2.8801241000182927, 5.328104899963364, 3.978919600136578, 4.311660299776122, 5.194697899976745, 2.0644702999852598, 2.8799279001541436, 4.595491799991578, 8.407475000014529, 4.645067299949005, 3.9457739000208676, 4.279125300003216, 3.0132221998646855, 3.0631373999640346, 2.197676599957049, 3.1127887000329792, 2.6806015998590738, 2.3637273001950234, 1.914963300107047, 1.8149623998906463, 2.0469055001158267, 3.712335799820721, 1.9981402000412345]","[5.960225699935108, 5.69447880005464, 8.42465820000507, 4.594938900088891, 9.723632899811491, 2.880129999946803, 5.32811119989492, 3.978924500057474, 4.311667199945077, 5.194703500019386, 2.0644753000233322, 2.879933000076562, 4.5954971997998655, 8.407480099936947, 4.645073899999261, 3.945778700057417, 4.27913079992868, 3.013227299787104, 3.063142499886453, 2.1976807999890298, 3.1127939000725746, 2.6806063998956233, 2.363732500001788, 1.9149680000264198, 1.814967199927196, 2.0469104999210685, 3.7123413998633623, 1.998145200079307]",929845,001,2022-11-04_12h02.21.094,intentional_binding,2022.2.4,60.06247694682845,
0.4,1000,exp,2,4,28,7,200.958137499867,201.95761809987016,201.95761809987016,201.95761809987016,space,0.8822278999723494,203.27242628994864,,203.57223149994388,203.57223149994388,203.57223149994388,300,29,"[5.9602209001313895, 5.694470200221986, 8.424653200199828, 4.594928100006655, 9.723627500003204, 2.8801241000182927, 5.328104899963364, 3.978919600136578, 4.311660299776122, 5.194697899976745, 2.0644702999852598, 2.8799279001541436, 4.595491799991578, 8.407475000014529, 4.645067299949005, 3.9457739000208676, 4.279125300003216, 3.0132221998646855, 3.0631373999640346, 2.197676599957049, 3.1127887000329792, 2.6806015998590738, 2.3637273001950234, 1.914963300107047, 1.8149623998906463, 2.0469055001158267, 3.712335799820721, 1.9981402000412345, 3.063949399860576]","[5.960225699935108, 5.69447880005464, 8.42465820000507, 4.594938900088891, 9.723632899811491, 2.880129999946803, 5.32811119989492, 3.978924500057474, 4.311667199945077, 5.194703500019386, 2.0644753000233322, 2.879933000076562, 4.5954971997998655, 8.407480099936947, 4.645073899999261, 3.945778700057417, 4.27913079992868, 3.013227299787104, 3.063142499886453, 2.1976807999890298, 3.1127939000725746, 2.6806063998956233, 2.363732500001788, 1.9149680000264198, 1.814967199927196, 2.0469104999210685, 3.7123413998633623, 1.998145200079307, 3.0639541000127792]",929845,001,2022-11-04_12h02.21.094,intentional_binding,2022.2.4,60.06247694682845,
0.1,1000,exp,2,5,29,3,206.63578579993919,207.63502909988165,207.63502909988165,207.63502909988165,space,0.8817775000352412,208.63461518983823,,208.9337983999867,208.9337983999867,208.9337983999867,120,30,"[5.9602209001313895, 5.694470200221986, 8.424653200199828, 4.594928100006655, 9.723627500003204, 2.8801241000182927, 5.328104899963364, 3.978919600136578, 4.311660299776122, 5.194697899976745, 2.0644702999852598, 2.8799279001541436, 4.595491799991578, 8.407475000014529, 4.645067299949005, 3.9457739000208676, 4.279125300003216, 3.0132221998646855, 3.0631373999640346, 2.197676599957049, 3.1127887000329792, 2.6806015998590738, 2.3637273001950234, 1.914963300107047, 1.8149623998906463, 2.0469055001158267, 3.712335799820721, 1.9981402000412345, 3.063949399860576, 6.477211699821055]","[5.960225699935108, 5.69447880005464, 8.42465820000507, 4.594938900088891, 9.723632899811491, 2.880129999946803, 5.32811119989492, 3.978924500057474, 4.311667199945077, 5.194703500019386, 2.0644753000233322, 2.879933000076562, 4.5954971997998655, 8.407480099936947, 4.645073899999261, 3.945778700057417, 4.27913079992868, 3.013227299787104, 3.063142499886453, 2.1976807999890298, 3.1127939000725746, 2.6806063998956233, 2.363732500001788, 1.9149680000264198, 1.814967199927196, 2.0469104999210685, 3.7123413998633623, 1.998145200079307, 3.0639541000127792, 6.477216799976304]",929845,001,2022-11-04_12h02.21.094,intentional_binding,2022.2.4,60.06247694682845,
0.7,400,unexp,2,6,30,2,215.41046269983053,216.40968569996767,216.40968569996767,216.40968569996767,space,0.9491749000735581,218.0744996899506,218.37462279992178,218.37462279992178,218.37462279992178,218.37462279992178,300,31,"[5.9602209001313895, 5.694470200221986, 8.424653200199828, 4.594928100006655, 9.723627500003204, 2.8801241000182927, 5.328104899963364, 3.978919600136578, 4.311660299776122, 5.194697899976745, 2.0644702999852598, 2.8799279001541436, 4.595491799991578, 8.407475000014529, 4.645067299949005, 3.9457739000208676, 4.279125300003216, 3.0132221998646855, 3.0631373999640346, 2.197676599957049, 3.1127887000329792, 2.6806015998590738, 2.3637273001950234, 1.914963300107047, 1.8149623998906463, 2.0469055001158267, 3.712335799820721, 1.9981402000412345, 3.063949399860576, 6.477211699821055, 3.113106400007382]","[5.960225699935108, 5.69447880005464, 8.42465820000507, 4.594938900088891, 9.723632899811491, 2.880129999946803, 5.32811119989492, 3.978924500057474, 4.311667199945077, 5.194703500019386, 2.0644753000233322, 2.879933000076562, 4.5954971997998655, 8.407480099936947, 4.645073899999261, 3.945778700057417, 4.27913079992868, 3.013227299787104, 3.063142499886453, 2.1976807999890298, 3.1127939000725746, 2.6806063998956233, 2.363732500001788, 1.9149680000264198, 1.814967199927196, 2.0469104999210685, 3.7123413998633623, 1.998145200079307, 3.0639541000127792, 6.477216799976304, 3.1131114999298006]",929845,001,2022-11-04_12h02.21.094,intentional_binding,2022.2.4,60.06247694682845,
0.1,1000,exp,2,7,31,9,221.4878671998158,222.48690609983169,222.48690609983169,222.48690609983169,space,0.9194466001354158,223.53590098998976,,223.83615729981102,223.83615729981102,223.83615729981102,250,32,"[5.9602209001313895, 5.694470200221986, 8.424653200199828, 4.594928100006655, 9.723627500003204, 2.8801241000182927, 5.328104899963364, 3.978919600136578, 4.311660299776122, 5.194697899976745, 2.0644702999852598, 2.8799279001541436, 4.595491799991578, 8.407475000014529, 4.645067299949005, 3.9457739000208676, 4.279125300003216, 3.0132221998646855, 3.0631373999640346, 2.197676599957049, 3.1127887000329792, 2.6806015998590738, 2.3637273001950234, 1.914963300107047, 1.8149623998906463, 2.0469055001158267, 3.712335799820721, 1.9981402000412345, 3.063949399860576, 6.477211699821055, 3.113106400007382, 2.9296824000775814]","[5.960225699935108, 5.69447880005464, 8.42465820000507, 4.594938900088891, 9.723632899811491, 2.880129999946803, 5.32811119989492, 3.978924500057474, 4.311667199945077, 5.194703500019386, 2.0644753000233322, 2.879933000076562, 4.5954971997998655, 8.407480099936947, 4.645073899999261, 3.945778700057417, 4.27913079992868, 3.013227299787104, 3.063142499886453, 2.1976807999890298, 3.1127939000725746, 2.6806063998956233, 2.363732500001788, 1.9149680000264198, 1.814967199927196, 2.0469104999210685, 3.7123413998633623, 1.998145200079307, 3.0639541000127792, 6.477216799976304, 3.1131114999298006, 2.929687599884346]",929845,001,2022-11-04_12h02.21.094,intentional_binding,2022.2.4,60.06247694682845,
0.1,400,unexp,2,8,32,0,226.76604529982433,227.76527649979107,227.76527649979107,227.76527649979107,space,0.5765622002072632,228.46433238985483,228.7642632999923,228.7642632999923,228.7642632999923,228.7642632999923,200,33,"[5.9602209001313895, 5.694470200221986, 8.424653200199828, 4.594928100006655, 9.723627500003204, 2.8801241000182927, 5.328104899963364, 3.978919600136578, 4.311660299776122, 5.194697899976745, 2.0644702999852598, 2.8799279001541436, 4.595491799991578, 8.407475000014529, 4.645067299949005, 3.9457739000208676, 4.279125300003216, 3.0132221998646855, 3.0631373999640346, 2.197676599957049, 3.1127887000329792, 2.6806015998590738, 2.3637273001950234, 1.914963300107047, 1.8149623998906463, 2.0469055001158267, 3.712335799820721, 1.9981402000412345, 3.063949399860576, 6.477211699821055, 3.113106400007382, 2.9296824000775814, 4.429023599950597]","[5.960225699935108, 5.69447880005464, 8.42465820000507, 4.594938900088891, 9.723632899811491, 2.880129999946803, 5.32811119989492, 3.978924500057474, 4.311667199945077, 5.194703500019386, 2.0644753000233322, 2.879933000076562, 4.5954971997998655, 8.407480099936947, 4.645073899999261, 3.945778700057417, 4.27913079992868, 3.013227299787104, 3.063142499886453, 2.1976807999890298, 3.1127939000725746, 2.6806063998956233, 2.363732500001788, 1.9149680000264198, 1.814967199927196, 2.0469104999210685, 3.7123413998633623, 1.998145200079307, 3.0639541000127792, 6.477216799976304, 3.1131114999298006, 2.929687599884346, 4.429033399792388]",929845,001,2022-11-04_12h02.21.094,intentional_binding,2022.2.4,60.06247694682845,
0.1,1000,exp,2,9,33,6,233.19341899990104,234.19224509992637,234.19224509992637,234.20886829984374,space,0.7873768000863492,235.1083940898301,235.4079466999974,235.4079466999974,235.4079466999974,235.4079466999974,250,34,"[5.9602209001313895, 5.694470200221986, 8.424653200199828, 4.594928100006655, 9.723627500003204, 2.8801241000182927, 5.328104899963364, 3.978919600136578, 4.311660299776122, 5.194697899976745, 2.0644702999852598, 2.8799279001541436, 4.595491799991578, 8.407475000014529, 4.645067299949005, 3.9457739000208676, 4.279125300003216, 3.0132221998646855, 3.0631373999640346, 2.197676599957049, 3.1127887000329792, 2.6806015998590738, 2.3637273001950234, 1.914963300107047, 1.8149623998906463, 2.0469055001158267, 3.712335799820721, 1.9981402000412345, 3.063949399860576, 6.477211699821055, 3.113106400007382, 2.9296824000775814, 4.429023599950597, 2.130865199957043]","[5.960225699935108, 5.69447880005464, 8.42465820000507, 4.594938900088891, 9.723632899811491, 2.880129999946803, 5.32811119989492, 3.978924500057474, 4.311667199945077, 5.194703500019386, 2.0644753000233322, 2.879933000076562, 4.5954971997998655, 8.407480099936947, 4.645073899999261, 3.945778700057417, 4.27913079992868, 3.013227299787104, 3.063142499886453, 2.1976807999890298, 3.1127939000725746, 2.6806063998956233, 2.363732500001788, 1.9149680000264198, 1.814967199927196, 2.0469104999210685, 3.7123413998633623, 1.998145200079307, 3.0639541000127792, 6.477216799976304, 3.1131114999298006, 2.929687599884346, 4.429033399792388, 2.1308697999920696]",929845,001,2022-11-04_12h02.21.094,intentional_binding,2022.2.4,60.06247694682845,
0.4,1000,exp,2,10,34,4,237.53873579995707,238.53788389987312,238.53788389987312,238.53788389987312,space,0.5290898003149778,239.48688648988028,,239.7869023999665,239.7869023999665,239.7869023999665,250,35,"[5.9602209001313895, 5.694470200221986, 8.424653200199828, 4.594928100006655, 9.723627500003204, 2.8801241000182927, 5.328104899963364, 3.978919600136578, 4.311660299776122, 5.194697899976745, 2.0644702999852598, 2.8799279001541436, 4.595491799991578, 8.407475000014529, 4.645067299949005, 3.9457739000208676, 4.279125300003216, 3.0132221998646855, 3.0631373999640346, 2.197676599957049, 3.1127887000329792, 2.6806015998590738, 2.3637273001950234, 1.914963300107047, 1.8149623998906463, 2.0469055001158267, 3.712335799820721, 1.9981402000412345, 3.063949399860576, 6.477211699821055, 3.113106400007382, 2.9296824000775814, 4.429023599950597, 2.130865199957043, 2.0140315999742597]","[5.960225699935108, 5.69447880005464, 8.42465820000507, 4.594938900088891, 9.723632899811491, 2.880129999946803, 5.32811119989492, 3.978924500057474, 4.311667199945077, 5.194703500019386, 2.0644753000233322, 2.879933000076562, 4.5954971997998655, 8.407480099936947, 4.645073899999261, 3.945778700057417, 4.27913079992868, 3.013227299787104, 3.063142499886453, 2.1976807999890298, 3.1127939000725746, 2.6806063998956233, 2.363732500001788, 1.9149680000264198, 1.814967199927196, 2.0469104999210685, 3.7123413998633623, 1.998145200079307, 3.0639541000127792, 6.477216799976304, 3.1131114999298006, 2.929687599884346, 4.429033399792388, 2.1308697999920696, 2.014037200016901]",929845,001,2022-11-04_12h02.21.094,intentional_binding,2022.2.4,60.06247694682845,
0.4,400,unexp,2,11,35,1,241.8013151998166,242.80042939982377,242.80042939982377,242.80042939982377,space,0.378503100015223,243.59949508982245,243.89984989981167,243.89984989981167,243.89984989981167,243.89984989981167,300,36,"[5.9602209001313895, 5.694470200221986, 8.424653200199828, 4.594928100006655, 9.723627500003204, 2.8801241000182927, 5.328104899963364, 3.978919600136578, 4.311660299776122, 5.194697899976745, 2.0644702999852598, 2.8799279001541436, 4.595491799991578, 8.407475000014529, 4.645067299949005, 3.9457739000208676, 4.279125300003216, 3.0132221998646855, 3.0631373999640346, 2.197676599957049, 3.1127887000329792, 2.6806015998590738, 2.3637273001950234, 1.914963300107047, 1.8149623998906463, 2.0469055001158267, 3.712335799820721, 1.9981402000412345, 3.063949399860576, 6.477211699821055, 3.113106400007382, 2.9296824000775814, 4.429023599950597, 2.130865199957043, 2.0140315999742597, 2.430454900022596]","[5.960225699935108, 5.69447880005464, 8.42465820000507, 4.594938900088891, 9.723632899811491, 2.880129999946803, 5.32811119989492, 3.978924500057474, 4.311667199945077, 5.194703500019386, 2.0644753000233322, 2.879933000076562, 4.5954971997998655, 8.407480099936947, 4.645073899999261, 3.945778700057417, 4.27913079992868, 3.013227299787104, 3.063142499886453, 2.1976807999890298, 3.1127939000725746, 2.6806063998956233, 2.363732500001788, 1.9149680000264198, 1.814967199927196, 2.0469104999210685, 3.7123413998633623, 1.998145200079307, 3.0639541000127792, 6.477216799976304, 3.1131114999298006, 2.929687599884346, 4.429033399792388, 2.1308697999920696, 2.014037200016901, 2.4304605999495834]",929845,001,2022-11-04_12h02.21.094,intentional_binding,2022.2.4,60.06247694682845,
0.4,400,unexp,3,0,36,1,246.3303864998743,247.32939929980785,247.32939929980785,247.34587859991007,space,1.8404532000422478,249.59375378999394,249.89364049979486,249.89364049979486,249.89364049979486,249.89364049979486,400,37,"[5.9602209001313895, 5.694470200221986, 8.424653200199828, 4.594928100006655, 9.723627500003204, 2.8801241000182927, 5.328104899963364, 3.978919600136578, 4.311660299776122, 5.194697899976745, 2.0644702999852598, 2.8799279001541436, 4.595491799991578, 8.407475000014529, 4.645067299949005, 3.9457739000208676, 4.279125300003216, 3.0132221998646855, 3.0631373999640346, 2.197676599957049, 3.1127887000329792, 2.6806015998590738, 2.3637273001950234, 1.914963300107047, 1.8149623998906463, 2.0469055001158267, 3.712335799820721, 1.9981402000412345, 3.063949399860576, 6.477211699821055, 3.113106400007382, 2.9296824000775814, 4.429023599950597, 2.130865199957043, 2.0140315999742597, 2.430454900022596, 1.6645373001229018]","[5.960225699935108, 5.69447880005464, 8.42465820000507, 4.594938900088891, 9.723632899811491, 2.880129999946803, 5.32811119989492, 3.978924500057474, 4.311667199945077, 5.194703500019386, 2.0644753000233322, 2.879933000076562, 4.5954971997998655, 8.407480099936947, 4.645073899999261, 3.945778700057417, 4.27913079992868, 3.013227299787104, 3.063142499886453, 2.1976807999890298, 3.1127939000725746, 2.6806063998956233, 2.363732500001788, 1.9149680000264198, 1.814967199927196, 2.0469104999210685, 3.7123413998633623, 1.998145200079307, 3.0639541000127792, 6.477216799976304, 3.1131114999298006, 2.929687599884346, 4.429033399792388, 2.1308697999920696, 2.014037200016901, 2.4304605999495834, 1.6645420000422746]",929845,001,2022-11-04_12h02.21.094,intentional_binding,2022.2.4,60.06247694682845,
0.1,1000,exp,3,1,37,9,251.55849369987845,252.55779489991255,252.55779489991255,252.57416630000807,space,0.458703099982813,253.14023548990954,,253.44027159991674,253.44027159991674,253.44027159991674,250,38,"[5.9602209001313895, 5.694470200221986, 8.424653200199828, 4.594928100006655, 9.723627500003204, 2.8801241000182927, 5.328104899963364, 3.978919600136578, 4.311660299776122, 5.194697899976745, 2.0644702999852598, 2.8799279001541436, 4.595491799991578, 8.407475000014529, 4.645067299949005, 3.9457739000208676, 4.279125300003216, 3.0132221998646855, 3.0631373999640346, 2.197676599957049, 3.1127887000329792, 2.6806015998590738, 2.3637273001950234, 1.914963300107047, 1.8149623998906463, 2.0469055001158267, 3.712335799820721, 1.9981402000412345, 3.063949399860576, 6.477211699821055, 3.113106400007382, 2.9296824000775814, 4.429023599950597, 2.130865199957043, 2.0140315999742597, 2.430454900022596, 1.6645373001229018, 4.478794499998912]","[5.960225699935108, 5.69447880005464, 8.42465820000507, 4.594938900088891, 9.723632899811491, 2.880129999946803, 5.32811119989492, 3.978924500057474, 4.311667199945077, 5.194703500019386, 2.0644753000233322, 2.879933000076562, 4.5954971997998655, 8.407480099936947, 4.645073899999261, 3.945778700057417, 4.27913079992868, 3.013227299787104, 3.063142499886453, 2.1976807999890298, 3.1127939000725746, 2.6806063998956233, 2.363732500001788, 1.9149680000264198, 1.814967199927196, 2.0469104999210685, 3.7123413998633623, 1.998145200079307, 3.0639541000127792, 6.477216799976304, 3.1131114999298006, 2.929687599884346, 4.429033399792388, 2.1308697999920696, 2.014037200016901, 2.4304605999495834, 1.6645420000422746, 4.478799799922854]",929845,001,2022-11-04_12h02.21.094,intentional_binding,2022.2.4,60.06247694682845,
0.1,400,unexp,3,2,38,0,257.91885599982925,258.91808599978685,258.91808599978685,258.91808599978685,space,0.4664198001846671,259.50073948989154,,259.80057509988546,259.80057509988546,259.80057509988546,250,39,"[5.9602209001313895, 5.694470200221986, 8.424653200199828, 4.594928100006655, 9.723627500003204, 2.8801241000182927, 5.328104899963364, 3.978919600136578, 4.311660299776122, 5.194697899976745, 2.0644702999852598, 2.8799279001541436, 4.595491799991578, 8.407475000014529, 4.645067299949005, 3.9457739000208676, 4.279125300003216, 3.0132221998646855, 3.0631373999640346, 2.197676599957049, 3.1127887000329792, 2.6806015998590738, 2.3637273001950234, 1.914963300107047, 1.8149623998906463, 2.0469055001158267, 3.712335799820721, 1.9981402000412345, 3.063949399860576, 6.477211699821055, 3.113106400007382, 2.9296824000775814, 4.429023599950597, 2.130865199957043, 2.0140315999742597, 2.430454900022596, 1.6645373001229018, 4.478794499998912, 2.2978511000983417]","[5.960225699935108, 5.69447880005464, 8.42465820000507, 4.594938900088891, 9.723632899811491, 2.880129999946803, 5.32811119989492, 3.978924500057474, 4.311667199945077, 5.194703500019386, 2.0644753000233322, 2.879933000076562, 4.5954971997998655, 8.407480099936947, 4.645073899999261, 3.945778700057417, 4.27913079992868, 3.013227299787104, 3.063142499886453, 2.1976807999890298, 3.1127939000725746, 2.6806063998956233, 2.363732500001788, 1.9149680000264198, 1.814967199927196, 2.0469104999210685, 3.7123413998633623, 1.998145200079307, 3.0639541000127792, 6.477216799976304, 3.1131114999298006, 2.929687599884346, 4.429033399792388, 2.1308697999920696, 2.014037200016901, 2.4304605999495834, 1.6645420000422746, 4.478799799922854, 2.2978555001318455]",929845,001,2022-11-04_12h02.21.094,intentional_binding,2022.2.4,60.06247694682845,
0.4,1000,exp,3,3,39,10,262.09830449987203,263.0971961999312,263.0971961999312,263.1136969998479,space,2.204905000049621,265.72803848979527,266.0282256999053,266.0282256999053,266.0282256999053,266.0282256999053,400,40,"[5.9602209001313895, 5.694470200221986, 8.424653200199828, 4.594928100006655, 9.723627500003204, 2.8801241000182927, 5.328104899963364, 3.978919600136578, 4.311660299776122, 5.194697899976745, 2.0644702999852598, 2.8799279001541436, 4.595491799991578, 8.407475000014529, 4.645067299949005, 3.9457739000208676, 4.279125300003216, 3.0132221998646855, 3.0631373999640346, 2.197676599957049, 3.1127887000329792, 2.6806015998590738, 2.3637273001950234, 1.914963300107047, 1.8149623998906463, 2.0469055001158267, 3.712335799820721, 1.9981402000412345, 3.063949399860576, 6.477211699821055, 3.113106400007382, 2.9296824000775814, 4.429023599950597, 2.130865199957043, 2.0140315999742597, 2.430454900022596, 1.6645373001229018, 4.478794499998912, 2.2978511000983417, 2.0977171000558883]","[5.960225699935108, 5.69447880005464, 8.42465820000507, 4.594938900088891, 9.723632899811491, 2.880129999946803, 5.32811119989492, 3.978924500057474, 4.311667199945077, 5.194703500019386, 2.0644753000233322, 2.879933000076562, 4.5954971997998655, 8.407480099936947, 4.645073899999261, 3.945778700057417, 4.27913079992868, 3.013227299787104, 3.063142499886453, 2.1976807999890298, 3.1127939000725746, 2.6806063998956233, 2.363732500001788, 1.9149680000264198, 1.814967199927196, 2.0469104999210685, 3.7123413998633623, 1.998145200079307, 3.0639541000127792, 6.477216799976304, 3.1131114999298006, 2.929687599884346, 4.429033399792388, 2.1308697999920696, 2.014037200016901, 2.4304605999495834, 1.6645420000422746, 4.478799799922854, 2.2978555001318455, 2.0977221000939608]",929845,001,2022-11-04_12h02.21.094,intentional_binding,2022.2.4,60.06247694682845,
0.1,1000,exp,3,4,40,3,268.1256260999944,269.1247127999086,269.1247127999086,269.1413147998974,space,0.4700251000467688,269.7240229898365,270.02441809978336,270.02441809978336,270.02441809978336,270.02441809978336,120,41,"[5.9602209001313895, 5.694470200221986, 8.424653200199828, 4.594928100006655, 9.723627500003204, 2.8801241000182927, 5.328104899963364, 3.978919600136578, 4.311660299776122, 5.194697899976745, 2.0644702999852598, 2.8799279001541436, 4.595491799991578, 8.407475000014529, 4.645067299949005, 3.9457739000208676, 4.279125300003216, 3.0132221998646855, 3.0631373999640346, 2.197676599957049, 3.1127887000329792, 2.6806015998590738, 2.3637273001950234, 1.914963300107047, 1.8149623998906463, 2.0469055001158267, 3.712335799820721, 1.9981402000412345, 3.063949399860576, 6.477211699821055, 3.113106400007382, 2.9296824000775814, 4.429023599950597, 2.130865199957043, 2.0140315999742597, 2.430454900022596, 1.6645373001229018, 4.478794499998912, 2.2978511000983417, 2.0977171000558883, 3.0635740000288934]","[5.960225699935108, 5.69447880005464, 8.42465820000507, 4.594938900088891, 9.723632899811491, 2.880129999946803, 5.32811119989492, 3.978924500057474, 4.311667199945077, 5.194703500019386, 2.0644753000233322, 2.879933000076562, 4.5954971997998655, 8.407480099936947, 4.645073899999261, 3.945778700057417, 4.27913079992868, 3.013227299787104, 3.063142499886453, 2.1976807999890298, 3.1127939000725746, 2.6806063998956233, 2.363732500001788, 1.9149680000264198, 1.814967199927196, 2.0469104999210685, 3.7123413998633623, 1.998145200079307, 3.0639541000127792, 6.477216799976304, 3.1131114999298006, 2.929687599884346, 4.429033399792388, 2.1308697999920696, 2.014037200016901, 2.4304605999495834, 1.6645420000422746, 4.478799799922854, 2.2978555001318455, 2.0977221000939608, 3.063579000066966]",929845,001,2022-11-04_12h02.21.094,intentional_binding,2022.2.4,60.06247694682845,
0.7,1000,exp,3,5,41,8,273.08751009986736,274.0865270998329,274.0865270998329,274.1030751999933,space,0.9393971001263708,275.7513258899329,,276.0525009999983,276.0525009999983,276.0525009999983,400,42,"[5.9602209001313895, 5.694470200221986, 8.424653200199828, 4.594928100006655, 9.723627500003204, 2.8801241000182927, 5.328104899963364, 3.978919600136578, 4.311660299776122, 5.194697899976745, 2.0644702999852598, 2.8799279001541436, 4.595491799991578, 8.407475000014529, 4.645067299949005, 3.9457739000208676, 4.279125300003216, 3.0132221998646855, 3.0631373999640346, 2.197676599957049, 3.1127887000329792, 2.6806015998590738, 2.3637273001950234, 1.914963300107047, 1.8149623998906463, 2.0469055001158267, 3.712335799820721, 1.9981402000412345, 3.063949399860576, 6.477211699821055, 3.113106400007382, 2.9296824000775814, 4.429023599950597, 2.130865199957043, 2.0140315999742597, 2.430454900022596, 1.6645373001229018, 4.478794499998912, 2.2978511000983417, 2.0977171000558883, 3.0635740000288934, 1.698120400076732]","[5.960225699935108, 5.69447880005464, 8.42465820000507, 4.594938900088891, 9.723632899811491, 2.880129999946803, 5.32811119989492, 3.978924500057474, 4.311667199945077, 5.194703500019386, 2.0644753000233322, 2.879933000076562, 4.5954971997998655, 8.407480099936947, 4.645073899999261, 3.945778700057417, 4.27913079992868, 3.013227299787104, 3.063142499886453, 2.1976807999890298, 3.1127939000725746, 2.6806063998956233, 2.363732500001788, 1.9149680000264198, 1.814967199927196, 2.0469104999210685, 3.7123413998633623, 1.998145200079307, 3.0639541000127792, 6.477216799976304, 3.1131114999298006, 2.929687599884346, 4.429033399792388, 2.1308697999920696, 2.014037200016901, 2.4304605999495834, 1.6645420000422746, 4.478799799922854, 2.2978555001318455, 2.0977221000939608, 3.063579000066966, 1.6981250999961048]",929845,001,2022-11-04_12h02.21.094,intentional_binding,2022.2.4,60.06247694682845,
0.4,1000,exp,3,6,42,7,277.74954339978285,278.7487049999181,278.7487049999181,278.76524189999327,space,1.0960835001897067,280.2648131898371,,280.5637689998839,280.5637689998839,280.5637689998839,400,43,"[5.9602209001313895, 5.694470200221986, 8.424653200199828, 4.594928100006655, 9.723627500003204, 2.8801241000182927, 5.328104899963364, 3.978919600136578, 4.311660299776122, 5.194697899976745, 2.0644702999852598, 2.8799279001541436, 4.595491799991578, 8.407475000014529, 4.645067299949005, 3.9457739000208676, 4.279125300003216, 3.0132221998646855, 3.0631373999640346, 2.197676599957049, 3.1127887000329792, 2.6806015998590738, 2.3637273001950234, 1.914963300107047, 1.8149623998906463, 2.0469055001158267, 3.712335799820721, 1.9981402000412345, 3.063949399860576, 6.477211699821055, 3.113106400007382, 2.9296824000775814, 4.429023599950597, 2.130865199957043, 2.0140315999742597, 2.430454900022596, 1.6645373001229018, 4.478794499998912, 2.2978511000983417, 2.0977171000558883, 3.0635740000288934, 1.698120400076732, 3.0648470998276025]","[5.960225699935108, 5.69447880005464, 8.42465820000507, 4.594938900088891, 9.723632899811491, 2.880129999946803, 5.32811119989492, 3.978924500057474, 4.311667199945077, 5.194703500019386, 2.0644753000233322, 2.879933000076562, 4.5954971997998655, 8.407480099936947, 4.645073899999261, 3.945778700057417, 4.27913079992868, 3.013227299787104, 3.063142499886453, 2.1976807999890298, 3.1127939000725746, 2.6806063998956233, 2.363732500001788, 1.9149680000264198, 1.814967199927196, 2.0469104999210685, 3.7123413998633623, 1.998145200079307, 3.0639541000127792, 6.477216799976304, 3.1131114999298006, 2.929687599884346, 4.429033399792388, 2.1308697999920696, 2.014037200016901, 2.4304605999495834, 1.6645420000422746, 4.478799799922854, 2.2978555001318455, 2.0977221000939608, 3.063579000066966, 1.6981250999961048, 3.0648534998763353]",929845,001,2022-11-04_12h02.21.094,intentional_binding,2022.2.4,60.06247694682845,
0.7,1000,exp,3,7,43,5,283.62703549978323,284.62611339986324,284.62611339986324,284.62611339986324,space,0.6470675002783537,285.99171098994555,286.2914097998291,286.2914097998291,286.2914097998291,286.2914097998291,600,44,"[5.9602209001313895, 5.694470200221986, 8.424653200199828, 4.594928100006655, 9.723627500003204, 2.8801241000182927, 5.328104899963364, 3.978919600136578, 4.311660299776122, 5.194697899976745, 2.0644702999852598, 2.8799279001541436, 4.595491799991578, 8.407475000014529, 4.645067299949005, 3.9457739000208676, 4.279125300003216, 3.0132221998646855, 3.0631373999640346, 2.197676599957049, 3.1127887000329792, 2.6806015998590738, 2.3637273001950234, 1.914963300107047, 1.8149623998906463, 2.0469055001158267, 3.712335799820721, 1.9981402000412345, 3.063949399860576, 6.477211699821055, 3.113106400007382, 2.9296824000775814, 4.429023599950597, 2.130865199957043, 2.0140315999742597, 2.430454900022596, 1.6645373001229018, 4.478794499998912, 2.2978511000983417, 2.0977171000558883, 3.0635740000288934, 1.698120400076732, 3.0648470998276025, 1.7811362999491394]","[5.960225699935108, 5.69447880005464, 8.42465820000507, 4.594938900088891, 9.723632899811491, 2.880129999946803, 5.32811119989492, 3.978924500057474, 4.311667199945077, 5.194703500019386, 2.0644753000233322, 2.879933000076562, 4.5954971997998655, 8.407480099936947, 4.645073899999261, 3.945778700057417, 4.27913079992868, 3.013227299787104, 3.063142499886453, 2.1976807999890298, 3.1127939000725746, 2.6806063998956233, 2.363732500001788, 1.9149680000264198, 1.814967199927196, 2.0469104999210685, 3.7123413998633623, 1.998145200079307, 3.0639541000127792, 6.477216799976304, 3.1131114999298006, 2.929687599884346, 4.429033399792388, 2.1308697999920696, 2.014037200016901, 2.4304605999495834, 1.6645420000422746, 4.478799799922854, 2.2978555001318455, 2.0977221000939608, 3.063579000066966, 1.6981250999961048, 3.0648534998763353, 1.781141199870035]",929845,001,2022-11-04_12h02.21.094,intentional_binding,2022.2.4,60.06247694682845,
0.1,1000,exp,3,8,44,6,288.0728342998773,289.0716569998767,289.0716569998767,289.0716569998767,space,0.3459540002513677,289.5380194899393,,289.8378242999315,289.8378242999315,289.8378242999315,100,45,"[5.9602209001313895, 5.694470200221986, 8.424653200199828, 4.594928100006655, 9.723627500003204, 2.8801241000182927, 5.328104899963364, 3.978919600136578, 4.311660299776122, 5.194697899976745, 2.0644702999852598, 2.8799279001541436, 4.595491799991578, 8.407475000014529, 4.645067299949005, 3.9457739000208676, 4.279125300003216, 3.0132221998646855, 3.0631373999640346, 2.197676599957049, 3.1127887000329792, 2.6806015998590738, 2.3637273001950234, 1.914963300107047, 1.8149623998906463, 2.0469055001158267, 3.712335799820721, 1.9981402000412345, 3.063949399860576, 6.477211699821055, 3.113106400007382, 2.9296824000775814, 4.429023599950597, 2.130865199957043, 2.0140315999742597, 2.430454900022596, 1.6645373001229018, 4.478794499998912, 2.2978511000983417, 2.0977171000558883, 3.0635740000288934, 1.698120400076732, 3.0648470998276025, 1.7811362999491394, 4.011464399984106]","[5.960225699935108, 5.69447880005464, 8.42465820000507, 4.594938900088891, 9.723632899811491, 2.880129999946803, 5.32811119989492, 3.978924500057474, 4.311667199945077, 5.194703500019386, 2.0644753000233322, 2.879933000076562, 4.5954971997998655, 8.407480099936947, 4.645073899999261, 3.945778700057417, 4.27913079992868, 3.013227299787104, 3.063142499886453, 2.1976807999890298, 3.1127939000725746, 2.6806063998956233, 2.363732500001788, 1.9149680000264198, 1.814967199927196, 2.0469104999210685, 3.7123413998633623, 1.998145200079307, 3.0639541000127792, 6.477216799976304, 3.1131114999298006, 2.929687599884346, 4.429033399792388, 2.1308697999920696, 2.014037200016901, 2.4304605999495834, 1.6645420000422746, 4.478799799922854, 2.2978555001318455, 2.0977221000939608, 3.063579000066966, 1.6981250999961048, 3.0648534998763353, 1.781141199870035, 4.011469200020656]",929845,001,2022-11-04_12h02.21.094,intentional_binding,2022.2.4,60.06247694682845,
0.7,400,unexp,3,9,45,2,293.85052799992263,294.8496212998871,294.8496212998871,294.86622520000674,space,0.4007369000464678,295.9815754899522,,296.28167419997044,296.28167419997044,296.28167419997044,650,46,"[5.9602209001313895, 5.694470200221986, 8.424653200199828, 4.594928100006655, 9.723627500003204, 2.8801241000182927, 5.328104899963364, 3.978919600136578, 4.311660299776122, 5.194697899976745, 2.0644702999852598, 2.8799279001541436, 4.595491799991578, 8.407475000014529, 4.645067299949005, 3.9457739000208676, 4.279125300003216, 3.0132221998646855, 3.0631373999640346, 2.197676599957049, 3.1127887000329792, 2.6806015998590738, 2.3637273001950234, 1.914963300107047, 1.8149623998906463, 2.0469055001158267, 3.712335799820721, 1.9981402000412345, 3.063949399860576, 6.477211699821055, 3.113106400007382, 2.9296824000775814, 4.429023599950597, 2.130865199957043, 2.0140315999742597, 2.430454900022596, 1.6645373001229018, 4.478794499998912, 2.2978511000983417, 2.0977171000558883, 3.0635740000288934, 1.698120400076732, 3.0648470998276025, 1.7811362999491394, 4.011464399984106, 5.6942970000673085]","[5.960225699935108, 5.69447880005464, 8.42465820000507, 4.594938900088891, 9.723632899811491, 2.880129999946803, 5.32811119989492, 3.978924500057474, 4.311667199945077, 5.194703500019386, 2.0644753000233322, 2.879933000076562, 4.5954971997998655, 8.407480099936947, 4.645073899999261, 3.945778700057417, 4.27913079992868, 3.013227299787104, 3.063142499886453, 2.1976807999890298, 3.1127939000725746, 2.6806063998956233, 2.363732500001788, 1.9149680000264198, 1.814967199927196, 2.0469104999210685, 3.7123413998633623, 1.998145200079307, 3.0639541000127792, 6.477216799976304, 3.1131114999298006, 2.929687599884346, 4.429033399792388, 2.1308697999920696, 2.014037200016901, 2.4304605999495834, 1.6645420000422746, 4.478799799922854, 2.2978555001318455, 2.0977221000939608, 3.063579000066966, 1.6981250999961048, 3.0648534998763353, 1.781141199870035, 4.011469200020656, 5.694302000105381]",929845,001,2022-11-04_12h02.21.094,intentional_binding,2022.2.4,60.06247694682845,
0.4,1000,exp,3,10,46,4,301.9757877998054,302.9749834998511,302.9749834998511,302.9749834998511,space,0.6301227000076324,304.02370688992085,,304.32379349996336,304.32379349996336,304.32379349996336,250,47,"[5.9602209001313895, 5.694470200221986, 8.424653200199828, 4.594928100006655, 9.723627500003204, 2.8801241000182927, 5.328104899963364, 3.978919600136578, 4.311660299776122, 5.194697899976745, 2.0644702999852598, 2.8799279001541436, 4.595491799991578, 8.407475000014529, 4.645067299949005, 3.9457739000208676, 4.279125300003216, 3.0132221998646855, 3.0631373999640346, 2.197676599957049, 3.1127887000329792, 2.6806015998590738, 2.3637273001950234, 1.914963300107047, 1.8149623998906463, 2.0469055001158267, 3.712335799820721, 1.9981402000412345, 3.063949399860576, 6.477211699821055, 3.113106400007382, 2.9296824000775814, 4.429023599950597, 2.130865199957043, 2.0140315999742597, 2.430454900022596, 1.6645373001229018, 4.478794499998912, 2.2978511000983417, 2.0977171000558883, 3.0635740000288934, 1.698120400076732, 3.0648470998276025, 1.7811362999491394, 4.011464399984106, 5.6942970000673085, 3.012970400042832]","[5.960225699935108, 5.69447880005464, 8.42465820000507, 4.594938900088891, 9.723632899811491, 2.880129999946803, 5.32811119989492, 3.978924500057474, 4.311667199945077, 5.194703500019386, 2.0644753000233322, 2.879933000076562, 4.5954971997998655, 8.407480099936947, 4.645073899999261, 3.945778700057417, 4.27913079992868, 3.013227299787104, 3.063142499886453, 2.1976807999890298, 3.1127939000725746, 2.6806063998956233, 2.363732500001788, 1.9149680000264198, 1.814967199927196, 2.0469104999210685, 3.7123413998633623, 1.998145200079307, 3.0639541000127792, 6.477216799976304, 3.1131114999298006, 2.929687599884346, 4.429033399792388, 2.1308697999920696, 2.014037200016901, 2.4304605999495834, 1.6645420000422746, 4.478799799922854, 2.2978555001318455, 2.0977221000939608, 3.063579000066966, 1.6981250999961048, 3.0648534998763353, 1.781141199870035, 4.011469200020656, 5.694302000105381, 3.012976599857211]",929845,001,2022-11-04_12h02.21.094,intentional_binding,2022.2.4,60.06247694682845,
0.7,1000,exp,3,11,47,11,307.33732929988764,308.33623749995604,308.33623749995604,308.33623749995604,space,1.1742708999663591,310.23445498987564,,310.5342780998908,310.5342780998908,310.5342780998908,250,48,"[5.9602209001313895, 5.694470200221986, 8.424653200199828, 4.594928100006655, 9.723627500003204, 2.8801241000182927, 5.328104899963364, 3.978919600136578, 4.311660299776122, 5.194697899976745, 2.0644702999852598, 2.8799279001541436, 4.595491799991578, 8.407475000014529, 4.645067299949005, 3.9457739000208676, 4.279125300003216, 3.0132221998646855, 3.0631373999640346, 2.197676599957049, 3.1127887000329792, 2.6806015998590738, 2.3637273001950234, 1.914963300107047, 1.8149623998906463, 2.0469055001158267, 3.712335799820721, 1.9981402000412345, 3.063949399860576, 6.477211699821055, 3.113106400007382, 2.9296824000775814, 4.429023599950597, 2.130865199957043, 2.0140315999742597, 2.430454900022596, 1.6645373001229018, 4.478794499998912, 2.2978511000983417, 2.0977171000558883, 3.0635740000288934, 1.698120400076732, 3.0648470998276025, 1.7811362999491394, 4.011464399984106, 5.6942970000673085, 3.012970400042832, 5.045170099940151]","[5.960225699935108, 5.69447880005464, 8.42465820000507, 4.594938900088891, 9.723632899811491, 2.880129999946803, 5.32811119989492, 3.978924500057474, 4.311667199945077, 5.194703500019386, 2.0644753000233322, 2.879933000076562, 4.5954971997998655, 8.407480099936947, 4.645073899999261, 3.945778700057417, 4.27913079992868, 3.013227299787104, 3.063142499886453, 2.1976807999890298, 3.1127939000725746, 2.6806063998956233, 2.363732500001788, 1.9149680000264198, 1.814967199927196, 2.0469104999210685, 3.7123413998633623, 1.998145200079307, 3.0639541000127792, 6.477216799976304, 3.1131114999298006, 2.929687599884346, 4.429033399792388, 2.1308697999920696, 2.014037200016901, 2.4304605999495834, 1.6645420000422746, 4.478799799922854, 2.2978555001318455, 2.0977221000939608, 3.063579000066966, 1.6981250999961048, 3.0648534998763353, 1.781141199870035, 4.011469200020656, 5.694302000105381, 3.012976599857211, 5.045174999861047]",929845,001,2022-11-04_12h02.21.094,intentional_binding,2022.2.4,60.06247694682845,
0.1,1000,exp,4,0,48,6,315.5791843999177,316.57838099985383,316.57838099985383,316.57838099985383,space,0.7955223000608385,317.49430318989323,,317.79387679998763,317.79387679998763,317.79387679998763,100,49,"[5.9602209001313895, 5.694470200221986, 8.424653200199828, 4.594928100006655, 9.723627500003204, 2.8801241000182927, 5.328104899963364, 3.978919600136578, 4.311660299776122, 5.194697899976745, 2.0644702999852598, 2.8799279001541436, 4.595491799991578, 8.407475000014529, 4.645067299949005, 3.9457739000208676, 4.279125300003216, 3.0132221998646855, 3.0631373999640346, 2.197676599957049, 3.1127887000329792, 2.6806015998590738, 2.3637273001950234, 1.914963300107047, 1.8149623998906463, 2.0469055001158267, 3.712335799820721, 1.9981402000412345, 3.063949399860576, 6.477211699821055, 3.113106400007382, 2.9296824000775814, 4.429023599950597, 2.130865199957043, 2.0140315999742597, 2.430454900022596, 1.6645373001229018, 4.478794499998912, 2.2978511000983417, 2.0977171000558883, 3.0635740000288934, 1.698120400076732, 3.0648470998276025, 1.7811362999491394, 4.011464399984106, 5.6942970000673085, 3.012970400042832, 5.045170099940151, 3.213024399941787]","[5.960225699935108, 5.69447880005464, 8.42465820000507, 4.594938900088891, 9.723632899811491, 2.880129999946803, 5.32811119989492, 3.978924500057474, 4.311667199945077, 5.194703500019386, 2.0644753000233322, 2.879933000076562, 4.5954971997998655, 8.407480099936947, 4.645073899999261, 3.945778700057417, 4.27913079992868, 3.013227299787104, 3.063142499886453, 2.1976807999890298, 3.1127939000725746, 2.6806063998956233, 2.363732500001788, 1.9149680000264198, 1.814967199927196, 2.0469104999210685, 3.7123413998633623, 1.998145200079307, 3.0639541000127792, 6.477216799976304, 3.1131114999298006, 2.929687599884346, 4.429033399792388, 2.1308697999920696, 2.014037200016901, 2.4304605999495834, 1.6645420000422746, 4.478799799922854, 2.2978555001318455, 2.0977221000939608, 3.063579000066966, 1.6981250999961048, 3.0648534998763353, 1.781141199870035, 4.011469200020656, 5.694302000105381, 3.012976599857211, 5.045174999861047, 3.2130295999813825]",929845,001,2022-11-04_12h02.21.094,intentional_binding,2022.2.4,60.06247694682845,
0.7,1000,exp,4,1,49,8,321.0072202999145,322.0063487999141,322.0063487999141,322.0063487999141,space,0.5457540000788867,323.27227458984123,323.571653699968,323.571653699968,323.571653699968,323.571653699968,100,50,"[5.9602209001313895, 5.694470200221986, 8.424653200199828, 4.594928100006655, 9.723627500003204, 2.8801241000182927, 5.328104899963364, 3.978919600136578, 4.311660299776122, 5.194697899976745, 2.0644702999852598, 2.8799279001541436, 4.595491799991578, 8.407475000014529, 4.645067299949005, 3.9457739000208676, 4.279125300003216, 3.0132221998646855, 3.0631373999640346, 2.197676599957049, 3.1127887000329792, 2.6806015998590738, 2.3637273001950234, 1.914963300107047, 1.8149623998906463, 2.0469055001158267, 3.712335799820721, 1.9981402000412345, 3.063949399860576, 6.477211699821055, 3.113106400007382, 2.9296824000775814, 4.429023599950597, 2.130865199957043, 2.0140315999742597, 2.430454900022596, 1.6645373001229018, 4.478794499998912, 2.2978511000983417, 2.0977171000558883, 3.0635740000288934, 1.698120400076732, 3.0648470998276025, 1.7811362999491394, 4.011464399984106, 5.6942970000673085, 3.012970400042832, 5.045170099940151, 3.213024399941787, 1.7143823998048902]","[5.960225699935108, 5.69447880005464, 8.42465820000507, 4.594938900088891, 9.723632899811491, 2.880129999946803, 5.32811119989492, 3.978924500057474, 4.311667199945077, 5.194703500019386, 2.0644753000233322, 2.879933000076562, 4.5954971997998655, 8.407480099936947, 4.645073899999261, 3.945778700057417, 4.27913079992868, 3.013227299787104, 3.063142499886453, 2.1976807999890298, 3.1127939000725746, 2.6806063998956233, 2.363732500001788, 1.9149680000264198, 1.814967199927196, 2.0469104999210685, 3.7123413998633623, 1.998145200079307, 3.0639541000127792, 6.477216799976304, 3.1131114999298006, 2.929687599884346, 4.429033399792388, 2.1308697999920696, 2.014037200016901, 2.4304605999495834, 1.6645420000422746, 4.478799799922854, 2.2978555001318455, 2.0977221000939608, 3.063579000066966, 1.6981250999961048, 3.0648534998763353, 1.781141199870035, 4.011469200020656, 5.694302000105381, 3.012976599857211, 5.045174999861047, 3.2130295999813825, 1.7143869998399168]",929845,001,2022-11-04_12h02.21.094,intentional_binding,2022.2.4,60.06247694682845,
0.4,1000,exp,4,2,50,7,325.2863266998902,326.285359099973,326.285359099973,326.285359099973,space,0.7284990001935512,327.4344758898718,,327.73432229994796,327.73432229994796,327.73432229994796,250,51,"[5.9602209001313895, 5.694470200221986, 8.424653200199828, 4.594928100006655, 9.723627500003204, 2.8801241000182927, 5.328104899963364, 3.978919600136578, 4.311660299776122, 5.194697899976745, 2.0644702999852598, 2.8799279001541436, 4.595491799991578, 8.407475000014529, 4.645067299949005, 3.9457739000208676, 4.279125300003216, 3.0132221998646855, 3.0631373999640346, 2.197676599957049, 3.1127887000329792, 2.6806015998590738, 2.3637273001950234, 1.914963300107047, 1.8149623998906463, 2.0469055001158267, 3.712335799820721, 1.9981402000412345, 3.063949399860576, 6.477211699821055, 3.113106400007382, 2.9296824000775814, 4.429023599950597, 2.130865199957043, 2.0140315999742597, 2.430454900022596, 1.6645373001229018, 4.478794499998912, 2.2978511000983417, 2.0977171000558883, 3.0635740000288934, 1.698120400076732, 3.0648470998276025, 1.7811362999491394, 4.011464399984106, 5.6942970000673085, 3.012970400042832, 5.045170099940151, 3.213024399941787, 1.7143823998048902, 2.396867100149393]","[5.960225699935108, 5.69447880005464, 8.42465820000507, 4.594938900088891, 9.723632899811491, 2.880129999946803, 5.32811119989492, 3.978924500057474, 4.311667199945077, 5.194703500019386, 2.0644753000233322, 2.879933000076562, 4.5954971997998655, 8.407480099936947, 4.645073899999261, 3.945778700057417, 4.27913079992868, 3.013227299787104, 3.063142499886453, 2.1976807999890298, 3.1127939000725746, 2.6806063998956233, 2.363732500001788, 1.9149680000264198, 1.814967199927196, 2.0469104999210685, 3.7123413998633623, 1.998145200079307, 3.0639541000127792, 6.477216799976304, 3.1131114999298006, 2.929687599884346, 4.429033399792388, 2.1308697999920696, 2.014037200016901, 2.4304605999495834, 1.6645420000422746, 4.478799799922854, 2.2978555001318455, 2.0977221000939608, 3.063579000066966, 1.6981250999961048, 3.0648534998763353, 1.781141199870035, 4.011469200020656, 5.694302000105381, 3.012976599857211, 5.045174999861047, 3.2130295999813825, 1.7143869998399168, 2.396871800068766]",929845,001,2022-11-04_12h02.21.094,intentional_binding,2022.2.4,60.06247694682845,
0.1,400,unexp,4,3,51,0,330.1314763999544,331.1305364998989,331.1305364998989,331.1305364998989,space,0.5512296000961214,331.81332248982505,,332.11311499984004,332.11311499984004,332.11311499984004,100,52,"[5.9602209001313895, 5.694470200221986, 8.424653200199828, 4.594928100006655, 9.723627500003204, 2.8801241000182927, 5.328104899963364, 3.978919600136578, 4.311660299776122, 5.194697899976745, 2.0644702999852598, 2.8799279001541436, 4.595491799991578, 8.407475000014529, 4.645067299949005, 3.9457739000208676, 4.279125300003216, 3.0132221998646855, 3.0631373999640346, 2.197676599957049, 3.1127887000329792, 2.6806015998590738, 2.3637273001950234, 1.914963300107047, 1.8149623998906463, 2.0469055001158267, 3.712335799820721, 1.9981402000412345, 3.063949399860576, 6.477211699821055, 3.113106400007382, 2.9296824000775814, 4.429023599950597, 2.130865199957043, 2.0140315999742597, 2.430454900022596, 1.6645373001229018, 4.478794499998912, 2.2978511000983417, 2.0977171000558883, 3.0635740000288934, 1.698120400076732, 3.0648470998276025, 1.7811362999491394, 4.011464399984106, 5.6942970000673085, 3.012970400042832, 5.045170099940151, 3.213024399941787, 1.7143823998048902, 2.396867100149393, 1.7981697001960129]","[5.960225699935108, 5.69447880005464, 8.42465820000507, 4.594938900088891, 9.723632899811491, 2.880129999946803, 5.32811119989492, 3.978924500057474, 4.311667199945077, 5.194703500019386, 2.0644753000233322, 2.879933000076562, 4.5954971997998655, 8.407480099936947, 4.645073899999261, 3.945778700057417, 4.27913079992868, 3.013227299787104, 3.063142499886453, 2.1976807999890298, 3.1127939000725746, 2.6806063998956233, 2.363732500001788, 1.9149680000264198, 1.814967199927196, 2.0469104999210685, 3.7123413998633623, 1.998145200079307, 3.0639541000127792, 6.477216799976304, 3.1131114999298006, 2.929687599884346, 4.429033399792388, 2.1308697999920696, 2.014037200016901, 2.4304605999495834, 1.6645420000422746, 4.478799799922854, 2.2978555001318455, 2.0977221000939608, 3.063579000066966, 1.6981250999961048, 3.0648534998763353, 1.781141199870035, 4.011469200020656, 5.694302000105381, 3.012976599857211, 5.045174999861047, 3.2130295999813825, 1.7143869998399168, 2.396871800068766, 1.7981743002310395]",929845,001,2022-11-04_12h02.21.094,intentional_binding,2022.2.4,60.06247694682845,
0.7,1000,exp,4,4,52,11,333.91128329979256,334.9104154999368,334.9104154999368,334.9104154999368,space,0.6869739000685513,336.32567408981265,336.6255950999912,336.6255950999912,336.6255950999912,336.6255950999912,400,53,"[5.9602209001313895, 5.694470200221986, 8.424653200199828, 4.594928100006655, 9.723627500003204, 2.8801241000182927, 5.328104899963364, 3.978919600136578, 4.311660299776122, 5.194697899976745, 2.0644702999852598, 2.8799279001541436, 4.595491799991578, 8.407475000014529, 4.645067299949005, 3.9457739000208676, 4.279125300003216, 3.0132221998646855, 3.0631373999640346, 2.197676599957049, 3.1127887000329792, 2.6806015998590738, 2.3637273001950234, 1.914963300107047, 1.8149623998906463, 2.0469055001158267, 3.712335799820721, 1.9981402000412345, 3.063949399860576, 6.477211699821055, 3.113106400007382, 2.9296824000775814, 4.429023599950597, 2.130865199957043, 2.0140315999742597, 2.430454900022596, 1.6645373001229018, 4.478794499998912, 2.2978511000983417, 2.0977171000558883, 3.0635740000288934, 1.698120400076732, 3.0648470998276025, 1.7811362999491394, 4.011464399984106, 5.6942970000673085, 3.012970400042832, 5.045170099940151, 3.213024399941787, 1.7143823998048902, 2.396867100149393, 1.7981697001960129, 2.596818400081247]","[5.960225699935108, 5.69447880005464, 8.42465820000507, 4.594938900088891, 9.723632899811491, 2.880129999946803, 5.32811119989492, 3.978924500057474, 4.311667199945077, 5.194703500019386, 2.0644753000233322, 2.879933000076562, 4.5954971997998655, 8.407480099936947, 4.645073899999261, 3.945778700057417, 4.27913079992868, 3.013227299787104, 3.063142499886453, 2.1976807999890298, 3.1127939000725746, 2.6806063998956233, 2.363732500001788, 1.9149680000264198, 1.814967199927196, 2.0469104999210685, 3.7123413998633623, 1.998145200079307, 3.0639541000127792, 6.477216799976304, 3.1131114999298006, 2.929687599884346, 4.429033399792388, 2.1308697999920696, 2.014037200016901, 2.4304605999495834, 1.6645420000422746, 4.478799799922854, 2.2978555001318455, 2.0977221000939608, 3.063579000066966, 1.6981250999961048, 3.0648534998763353, 1.781141199870035, 4.011469200020656, 5.694302000105381, 3.012976599857211, 5.045174999861047, 3.2130295999813825, 1.7143869998399168, 2.396871800068766, 1.7981743002310395, 2.59682310000062]",929845,001,2022-11-04_12h02.21.094,intentional_binding,2022.2.4,60.06247694682845,
0.7,400,unexp,4,5,53,2,339.2229710998945,340.221836599987,340.221836599987,340.2384770999197,space,0.5443565000314265,341.4870633899467,,341.7868978998158,341.7868978998158,341.7868978998158,500,54,"[5.9602209001313895, 5.694470200221986, 8.424653200199828, 4.594928100006655, 9.723627500003204, 2.8801241000182927, 5.328104899963364, 3.978919600136578, 4.311660299776122, 5.194697899976745, 2.0644702999852598, 2.8799279001541436, 4.595491799991578, 8.407475000014529, 4.645067299949005, 3.9457739000208676, 4.279125300003216, 3.0132221998646855, 3.0631373999640346, 2.197676599957049, 3.1127887000329792, 2.6806015998590738, 2.3637273001950234, 1.914963300107047, 1.8149623998906463, 2.0469055001158267, 3.712335799820721, 1.9981402000412345, 3.063949399860576, 6.477211699821055, 3.113106400007382, 2.9296824000775814, 4.429023599950597, 2.130865199957043, 2.0140315999742597, 2.430454900022596, 1.6645373001229018, 4.478794499998912, 2.2978511000983417, 2.0977171000558883, 3.0635740000288934, 1.698120400076732, 3.0648470998276025, 1.7811362999491394, 4.011464399984106, 5.6942970000673085, 3.012970400042832, 5.045170099940151, 3.213024399941787, 1.7143823998048902, 2.396867100149393, 1.7981697001960129, 2.596818400081247, 1.9657572000287473]","[5.960225699935108, 5.69447880005464, 8.42465820000507, 4.594938900088891, 9.723632899811491, 2.880129999946803, 5.32811119989492, 3.978924500057474, 4.311667199945077, 5.194703500019386, 2.0644753000233322, 2.879933000076562, 4.5954971997998655, 8.407480099936947, 4.645073899999261, 3.945778700057417, 4.27913079992868, 3.013227299787104, 3.063142499886453, 2.1976807999890298, 3.1127939000725746, 2.6806063998956233, 2.363732500001788, 1.9149680000264198, 1.814967199927196, 2.0469104999210685, 3.7123413998633623, 1.998145200079307, 3.0639541000127792, 6.477216799976304, 3.1131114999298006, 2.929687599884346, 4.429033399792388, 2.1308697999920696, 2.014037200016901, 2.4304605999495834, 1.6645420000422746, 4.478799799922854, 2.2978555001318455, 2.0977221000939608, 3.063579000066966, 1.6981250999961048, 3.0648534998763353, 1.781141199870035, 4.011469200020656, 5.694302000105381, 3.012976599857211, 5.045174999861047, 3.2130295999813825, 1.7143869998399168, 2.396871800068766, 1.7981743002310395, 2.59682310000062, 1.965762099949643]",929845,001,2022-11-04_12h02.21.094,intentional_binding,2022.2.4,60.06247694682845,
0.7,1000,exp,4,6,54,5,343.75214060000144,344.75106939999387,344.75106939999387,344.7675800998695,space,0.36067979992367327,345.8328018898377,,346.1332379998639,346.1332379998639,346.1332379998639,225,55,"[5.9602209001313895, 5.694470200221986, 8.424653200199828, 4.594928100006655, 9.723627500003204, 2.8801241000182927, 5.328104899963364, 3.978919600136578, 4.311660299776122, 5.194697899976745, 2.0644702999852598, 2.8799279001541436, 4.595491799991578, 8.407475000014529, 4.645067299949005, 3.9457739000208676, 4.279125300003216, 3.0132221998646855, 3.0631373999640346, 2.197676599957049, 3.1127887000329792, 2.6806015998590738, 2.3637273001950234, 1.914963300107047, 1.8149623998906463, 2.0469055001158267, 3.712335799820721, 1.9981402000412345, 3.063949399860576, 6.477211699821055, 3.113106400007382, 2.9296824000775814, 4.429023599950597, 2.130865199957043, 2.0140315999742597, 2.430454900022596, 1.6645373001229018, 4.478794499998912, 2.2978511000983417, 2.0977171000558883, 3.0635740000288934, 1.698120400076732, 3.0648470998276025, 1.7811362999491394, 4.011464399984106, 5.6942970000673085, 3.012970400042832, 5.045170099940151, 3.213024399941787, 1.7143823998048902, 2.396867100149393, 1.7981697001960129, 2.596818400081247, 1.9657572000287473, 2.947928100125864]","[5.960225699935108, 5.69447880005464, 8.42465820000507, 4.594938900088891, 9.723632899811491, 2.880129999946803, 5.32811119989492, 3.978924500057474, 4.311667199945077, 5.194703500019386, 2.0644753000233322, 2.879933000076562, 4.5954971997998655, 8.407480099936947, 4.645073899999261, 3.945778700057417, 4.27913079992868, 3.013227299787104, 3.063142499886453, 2.1976807999890298, 3.1127939000725746, 2.6806063998956233, 2.363732500001788, 1.9149680000264198, 1.814967199927196, 2.0469104999210685, 3.7123413998633623, 1.998145200079307, 3.0639541000127792, 6.477216799976304, 3.1131114999298006, 2.929687599884346, 4.429033399792388, 2.1308697999920696, 2.014037200016901, 2.4304605999495834, 1.6645420000422746, 4.478799799922854, 2.2978555001318455, 2.0977221000939608, 3.063579000066966, 1.6981250999961048, 3.0648534998763353, 1.781141199870035, 4.011469200020656, 5.694302000105381, 3.012976599857211, 5.045174999861047, 3.2130295999813825, 1.7143869998399168, 2.396871800068766, 1.7981743002310395, 2.59682310000062, 1.965762099949643, 2.947932899929583]",929845,001,2022-11-04_12h02.21.094,intentional_binding,2022.2.4,60.06247694682845,
0.4,400,unexp,4,7,55,1,349.0797895998694,350.07865959987976,350.07865959987976,350.07865959987976,space,0.5216429999563843,351.02798748991916,,351.3276433998253,351.3276433998253,351.3276433998253,250,56,"[5.9602209001313895, 5.694470200221986, 8.424653200199828, 4.594928100006655, 9.723627500003204, 2.8801241000182927, 5.328104899963364, 3.978919600136578, 4.311660299776122, 5.194697899976745, 2.0644702999852598, 2.8799279001541436, 4.595491799991578, 8.407475000014529, 4.645067299949005, 3.9457739000208676, 4.279125300003216, 3.0132221998646855, 3.0631373999640346, 2.197676599957049, 3.1127887000329792, 2.6806015998590738, 2.3637273001950234, 1.914963300107047, 1.8149623998906463, 2.0469055001158267, 3.712335799820721, 1.9981402000412345, 3.063949399860576, 6.477211699821055, 3.113106400007382, 2.9296824000775814, 4.429023599950597, 2.130865199957043, 2.0140315999742597, 2.430454900022596, 1.6645373001229018, 4.478794499998912, 2.2978511000983417, 2.0977171000558883, 3.0635740000288934, 1.698120400076732, 3.0648470998276025, 1.7811362999491394, 4.011464399984106, 5.6942970000673085, 3.012970400042832, 5.045170099940151, 3.213024399941787, 1.7143823998048902, 2.396867100149393, 1.7981697001960129, 2.596818400081247, 1.9657572000287473, 2.947928100125864, 4.477305599953979]","[5.960225699935108, 5.69447880005464, 8.42465820000507, 4.594938900088891, 9.723632899811491, 2.880129999946803, 5.32811119989492, 3.978924500057474, 4.311667199945077, 5.194703500019386, 2.0644753000233322, 2.879933000076562, 4.5954971997998655, 8.407480099936947, 4.645073899999261, 3.945778700057417, 4.27913079992868, 3.013227299787104, 3.063142499886453, 2.1976807999890298, 3.1127939000725746, 2.6806063998956233, 2.363732500001788, 1.9149680000264198, 1.814967199927196, 2.0469104999210685, 3.7123413998633623, 1.998145200079307, 3.0639541000127792, 6.477216799976304, 3.1131114999298006, 2.929687599884346, 4.429033399792388, 2.1308697999920696, 2.014037200016901, 2.4304605999495834, 1.6645420000422746, 4.478799799922854, 2.2978555001318455, 2.0977221000939608, 3.063579000066966, 1.6981250999961048, 3.0648534998763353, 1.781141199870035, 4.011469200020656, 5.694302000105381, 3.012976599857211, 5.045174999861047, 3.2130295999813825, 1.7143869998399168, 2.396871800068766, 1.7981743002310395, 2.59682310000062, 1.965762099949643, 2.947932899929583, 4.477312000002712]",929845,001,2022-11-04_12h02.21.094,intentional_binding,2022.2.4,60.06247694682845,
0.1,1000,exp,4,8,56,9,355.806351599982,356.8055655998178,356.8055655998178,356.8055655998178,space,0.40625080023892224,357.338218389987,,357.6382334998343,357.6382334998343,357.6382334998343,250,57,"[5.9602209001313895, 5.694470200221986, 8.424653200199828, 4.594928100006655, 9.723627500003204, 2.8801241000182927, 5.328104899963364, 3.978919600136578, 4.311660299776122, 5.194697899976745, 2.0644702999852598, 2.8799279001541436, 4.595491799991578, 8.407475000014529, 4.645067299949005, 3.9457739000208676, 4.279125300003216, 3.0132221998646855, 3.0631373999640346, 2.197676599957049, 3.1127887000329792, 2.6806015998590738, 2.3637273001950234, 1.914963300107047, 1.8149623998906463, 2.0469055001158267, 3.712335799820721, 1.9981402000412345, 3.063949399860576, 6.477211699821055, 3.113106400007382, 2.9296824000775814, 4.429023599950597, 2.130865199957043, 2.0140315999742597, 2.430454900022596, 1.6645373001229018, 4.478794499998912, 2.2978511000983417, 2.0977171000558883, 3.0635740000288934, 1.698120400076732, 3.0648470998276025, 1.7811362999491394, 4.011464399984106, 5.6942970000673085, 3.012970400042832, 5.045170099940151, 3.213024399941787, 1.7143823998048902, 2.396867100149393, 1.7981697001960129, 2.596818400081247, 1.9657572000287473, 2.947928100125864, 4.477305599953979, 3.8280937001109123]","[5.960225699935108, 5.69447880005464, 8.42465820000507, 4.594938900088891, 9.723632899811491, 2.880129999946803, 5.32811119989492, 3.978924500057474, 4.311667199945077, 5.194703500019386, 2.0644753000233322, 2.879933000076562, 4.5954971997998655, 8.407480099936947, 4.645073899999261, 3.945778700057417, 4.27913079992868, 3.013227299787104, 3.063142499886453, 2.1976807999890298, 3.1127939000725746, 2.6806063998956233, 2.363732500001788, 1.9149680000264198, 1.814967199927196, 2.0469104999210685, 3.7123413998633623, 1.998145200079307, 3.0639541000127792, 6.477216799976304, 3.1131114999298006, 2.929687599884346, 4.429033399792388, 2.1308697999920696, 2.014037200016901, 2.4304605999495834, 1.6645420000422746, 4.478799799922854, 2.2978555001318455, 2.0977221000939608, 3.063579000066966, 1.6981250999961048, 3.0648534998763353, 1.781141199870035, 4.011469200020656, 5.694302000105381, 3.012976599857211, 5.045174999861047, 3.2130295999813825, 1.7143869998399168, 2.396871800068766, 1.7981743002310395, 2.59682310000062, 1.965762099949643, 2.947932899929583, 4.477312000002712, 3.828098800033331]",929845,001,2022-11-04_12h02.21.094,intentional_binding,2022.2.4,60.06247694682845,
0.1,1000,exp,4,9,57,3,361.4675206998363,362.4667481998913,362.4667481998913,362.4667481998913,space,0.453718300210312,363.04931768982203,363.3494066998828,363.3494066998828,363.3494066998828,363.3494066998828,250,58,"[5.9602209001313895, 5.694470200221986, 8.424653200199828, 4.594928100006655, 9.723627500003204, 2.8801241000182927, 5.328104899963364, 3.978919600136578, 4.311660299776122, 5.194697899976745, 2.0644702999852598, 2.8799279001541436, 4.595491799991578, 8.407475000014529, 4.645067299949005, 3.9457739000208676, 4.279125300003216, 3.0132221998646855, 3.0631373999640346, 2.197676599957049, 3.1127887000329792, 2.6806015998590738, 2.3637273001950234, 1.914963300107047, 1.8149623998906463, 2.0469055001158267, 3.712335799820721, 1.9981402000412345, 3.063949399860576, 6.477211699821055, 3.113106400007382, 2.9296824000775814, 4.429023599950597, 2.130865199957043, 2.0140315999742597, 2.430454900022596, 1.6645373001229018, 4.478794499998912, 2.2978511000983417, 2.0977171000558883, 3.0635740000288934, 1.698120400076732, 3.0648470998276025, 1.7811362999491394, 4.011464399984106, 5.6942970000673085, 3.012970400042832, 5.045170099940151, 3.213024399941787, 1.7143823998048902, 2.396867100149393, 1.7981697001960129, 2.596818400081247, 1.9657572000287473, 2.947928100125864, 4.477305599953979, 3.8280937001109123, 1.9308597999624908]","[5.960225699935108, 5.69447880005464, 8.42465820000507, 4.594938900088891, 9.723632899811491, 2.880129999946803, 5.32811119989492, 3.978924500057474, 4.311667199945077, 5.194703500019386, 2.0644753000233322, 2.879933000076562, 4.5954971997998655, 8.407480099936947, 4.645073899999261, 3.945778700057417, 4.27913079992868, 3.013227299787104, 3.063142499886453, 2.1976807999890298, 3.1127939000725746, 2.6806063998956233, 2.363732500001788, 1.9149680000264198, 1.814967199927196, 2.0469104999210685, 3.7123413998633623, 1.998145200079307, 3.0639541000127792, 6.477216799976304, 3.1131114999298006, 2.929687599884346, 4.429033399792388, 2.1308697999920696, 2.014037200016901, 2.4304605999495834, 1.6645420000422746, 4.478799799922854, 2.2978555001318455, 2.0977221000939608, 3.063579000066966, 1.6981250999961048, 3.0648534998763353, 1.781141199870035, 4.011469200020656, 5.694302000105381, 3.012976599857211, 5.045174999861047, 3.2130295999813825, 1.7143869998399168, 2.396871800068766, 1.7981743002310395, 2.59682310000062, 1.965762099949643, 2.947932899929583, 4.477312000002712, 3.828098800033331, 1.9308661001268774]",929845,001,2022-11-04_12h02.21.094,intentional_binding,2022.2.4,60.06247694682845,
0.4,1000,exp,4,10,58,4,365.28059809980914,366.2798654998187,366.2798654998187,366.2798654998187,space,0.8819061000831425,367.57844918987246,367.8782083999831,367.8782083999831,367.8782083999831,367.8782083999831,250,59,"[5.9602209001313895, 5.694470200221986, 8.424653200199828, 4.594928100006655, 9.723627500003204, 2.8801241000182927, 5.328104899963364, 3.978919600136578, 4.311660299776122, 5.194697899976745, 2.0644702999852598, 2.8799279001541436, 4.595491799991578, 8.407475000014529, 4.645067299949005, 3.9457739000208676, 4.279125300003216, 3.0132221998646855, 3.0631373999640346, 2.197676599957049, 3.1127887000329792, 2.6806015998590738, 2.3637273001950234, 1.914963300107047, 1.8149623998906463, 2.0469055001158267, 3.712335799820721, 1.9981402000412345, 3.063949399860576, 6.477211699821055, 3.113106400007382, 2.9296824000775814, 4.429023599950597, 2.130865199957043, 2.0140315999742597, 2.430454900022596, 1.6645373001229018, 4.478794499998912, 2.2978511000983417, 2.0977171000558883, 3.0635740000288934, 1.698120400076732, 3.0648470998276025, 1.7811362999491394, 4.011464399984106, 5.6942970000673085, 3.012970400042832, 5.045170099940151, 3.213024399941787, 1.7143823998048902, 2.396867100149393, 1.7981697001960129, 2.596818400081247, 1.9657572000287473, 2.947928100125864, 4.477305599953979, 3.8280937001109123, 1.9308597999624908, 1.3980326000601053]","[5.960225699935108, 5.69447880005464, 8.42465820000507, 4.594938900088891, 9.723632899811491, 2.880129999946803, 5.32811119989492, 3.978924500057474, 4.311667199945077, 5.194703500019386, 2.0644753000233322, 2.879933000076562, 4.5954971997998655, 8.407480099936947, 4.645073899999261, 3.945778700057417, 4.27913079992868, 3.013227299787104, 3.063142499886453, 2.1976807999890298, 3.1127939000725746, 2.6806063998956233, 2.363732500001788, 1.9149680000264198, 1.814967199927196, 2.0469104999210685, 3.7123413998633623, 1.998145200079307, 3.0639541000127792, 6.477216799976304, 3.1131114999298006, 2.929687599884346, 4.429033399792388, 2.1308697999920696, 2.014037200016901, 2.4304605999495834, 1.6645420000422746, 4.478799799922854, 2.2978555001318455, 2.0977221000939608, 3.063579000066966, 1.6981250999961048, 3.0648534998763353, 1.781141199870035, 4.011469200020656, 5.694302000105381, 3.012976599857211, 5.045174999861047, 3.2130295999813825, 1.7143869998399168, 2.396871800068766, 1.7981743002310395, 2.59682310000062, 1.965762099949643, 2.947932899929583, 4.477312000002712, 3.828098800033331, 1.9308661001268774, 1.3980388999916613]",929845,001,2022-11-04_12h02.21.094,intentional_binding,2022.2.4,60.06247694682845,
0.4,1000,exp,4,11,59,10,369.27678009984083,370.2760024999734,370.2760024999734,370.29233829979785,space,0.7508235001005232,371.4577241898281,371.7576836999506,371.7576836999506,371.7576836999506,371.7576836999506,100,60,"[5.9602209001313895, 5.694470200221986, 8.424653200199828, 4.594928100006655, 9.723627500003204, 2.8801241000182927, 5.328104899963364, 3.978919600136578, 4.311660299776122, 5.194697899976745, 2.0644702999852598, 2.8799279001541436, 4.595491799991578, 8.407475000014529, 4.645067299949005, 3.9457739000208676, 4.279125300003216, 3.0132221998646855, 3.0631373999640346, 2.197676599957049, 3.1127887000329792, 2.6806015998590738, 2.3637273001950234, 1.914963300107047, 1.8149623998906463, 2.0469055001158267, 3.712335799820721, 1.9981402000412345, 3.063949399860576, 6.477211699821055, 3.113106400007382, 2.9296824000775814, 4.429023599950597, 2.130865199957043, 2.0140315999742597, 2.430454900022596, 1.6645373001229018, 4.478794499998912, 2.2978511000983417, 2.0977171000558883, 3.0635740000288934, 1.698120400076732, 3.0648470998276025, 1.7811362999491394, 4.011464399984106, 5.6942970000673085, 3.012970400042832, 5.045170099940151, 3.213024399941787, 1.7143823998048902, 2.396867100149393, 1.7981697001960129, 2.596818400081247, 1.9657572000287473, 2.947928100125864, 4.477305599953979, 3.8280937001109123, 1.9308597999624908, 1.3980326000601053, 1.7812453000806272]","[5.960225699935108, 5.69447880005464, 8.42465820000507, 4.594938900088891, 9.723632899811491, 2.880129999946803, 5.32811119989492, 3.978924500057474, 4.311667199945077, 5.194703500019386, 2.0644753000233322, 2.879933000076562, 4.5954971997998655, 8.407480099936947, 4.645073899999261, 3.945778700057417, 4.27913079992868, 3.013227299787104, 3.063142499886453, 2.1976807999890298, 3.1127939000725746, 2.6806063998956233, 2.363732500001788, 1.9149680000264198, 1.814967199927196, 2.0469104999210685, 3.7123413998633623, 1.998145200079307, 3.0639541000127792, 6.477216799976304, 3.1131114999298006, 2.929687599884346, 4.429033399792388, 2.1308697999920696, 2.014037200016901, 2.4304605999495834, 1.6645420000422746, 4.478799799922854, 2.2978555001318455, 2.0977221000939608, 3.063579000066966, 1.6981250999961048, 3.0648534998763353, 1.781141199870035, 4.011469200020656, 5.694302000105381, 3.012976599857211, 5.045174999861047, 3.2130295999813825, 1.7143869998399168, 2.396871800068766, 1.7981743002310395, 2.59682310000062, 1.965762099949643, 2.947932899929583, 4.477312000002712, 3.828098800033331, 1.9308661001268774, 1.3980388999916613, 1.78125]",929845,001,2022-11-04_12h02.21.094,intentional_binding,2022.2.4,60.06247694682845,
